file_id,rt,responses,trial_type,trial_index,time_elapsed,internal_node_id,view_history,stimulus,button_pressed,speakers,key_press
data_2025-04-07-16-10-17.468706_6t6oh94iyv,7331.100000023842,"{""Participant ID"":""003""}",survey-text,0,7441,0.0-0.0-0.0-0.0,NA,NA,NA,NA,NA
data_2025-04-07-16-10-17.468706_6t6oh94iyv,482318,NA,instructions,1,489773,0.0-0.0-1.0,"[{""page_index"":0,""viewing_time"":482317.8000000119}]",NA,NA,NA,NA
data_2025-04-07-16-10-17.468706_6t6oh94iyv,5433.200000047684,NA,instructions,2,495459,0.0-0.0-2.0,"[{""page_index"":0,""viewing_time"":5433}]",NA,NA,NA,NA
data_2025-04-07-16-10-17.468706_6t6oh94iyv,2966.600000023842,NA,instructions,3,498676,0.0-0.0-3.0,"[{""page_index"":0,""viewing_time"":2966.400000035763}]",NA,NA,NA,NA
data_2025-04-07-16-10-17.468706_6t6oh94iyv,1381.300000011921,NA,instructions,4,500310,0.0-0.0-4.0,"[{""page_index"":0,""viewing_time"":1381.199999988079}]",NA,NA,NA,NA
data_2025-04-07-16-10-17.468706_6t6oh94iyv,3299.600000023842,NA,instructions,5,503862,0.0-0.0-5.0,"[{""page_index"":0,""viewing_time"":3299.5}]",NA,NA,NA,NA
data_2025-04-07-16-10-17.468706_6t6oh94iyv,2364.399999976158,NA,instructions,6,506478,0.0-0.0-6.0,"[{""page_index"":0,""viewing_time"":2364.100000023842}]",NA,NA,NA,NA
data_2025-04-07-16-10-17.468706_6t6oh94iyv,1999.6000000238419,NA,instructions,7,508730,0.0-0.0-7.0-0.0,"[{""page_index"":0,""viewing_time"":1999.3999999761581}]",NA,NA,NA,NA
data_2025-04-07-16-10-17.468706_6t6oh94iyv,null,NA,audio-button-response,8,511295,0.0-0.0-7.0-1.0,NA,resource/audio/airstrip_US.mp3,null,NA,NA
data_2025-04-07-16-10-17.468706_6t6oh94iyv,null,NA,audio-button-response,9,513258,0.0-0.0-7.0-2.0,NA,resource/audio/airstrip_TR.mp3,null,NA,NA
data_2025-04-07-16-10-17.468706_6t6oh94iyv,null,NA,audio-button-response,10,516095,0.0-0.0-7.0-3.0,NA,resource/audio/airstrip_NZ.mp3,null,NA,NA
data_2025-04-07-16-10-17.468706_6t6oh94iyv,2752.199999988079,NA,audio-button-response,11,519100,0.0-0.0-7.0-4.0,NA,resource/audio/blank.mp3,1,"airstrip_TR.mp3,airstrip_NZ.mp3",NA
data_2025-04-07-16-10-17.468706_6t6oh94iyv,1065.300000011921,NA,instructions,12,520416,0.0-0.0-7.0-5.0,"[{""page_index"":0,""viewing_time"":1065.1000000238419}]",NA,NA,NA,NA
data_2025-04-07-16-10-17.468706_6t6oh94iyv,null,NA,audio-button-response,13,522921,0.0-0.0-7.0-6.0,NA,resource/audio/lion_US.mp3,null,NA,NA
data_2025-04-07-16-10-17.468706_6t6oh94iyv,null,NA,audio-button-response,14,526527,0.0-0.0-7.0-7.0,NA,resource/audio/lion_NZ.mp3,null,NA,NA
data_2025-04-07-16-10-17.468706_6t6oh94iyv,null,NA,audio-button-response,15,528660,0.0-0.0-7.0-8.0,NA,resource/audio/lion_TR.mp3,null,NA,NA
data_2025-04-07-16-10-17.468706_6t6oh94iyv,1256.5,NA,audio-button-response,16,530169,0.0-0.0-7.0-9.0,NA,resource/audio/blank.mp3,1,"lion_NZ.mp3,lion_TR.mp3",NA
data_2025-04-07-16-10-17.468706_6t6oh94iyv,1132.4000000357628,NA,instructions,17,531553,0.0-0.0-7.0-10.0,"[{""page_index"":0,""viewing_time"":1132.300000011921}]",NA,NA,NA,NA
data_2025-04-07-16-10-17.468706_6t6oh94iyv,null,NA,audio-button-response,18,533140,0.0-0.0-7.0-11.0,NA,resource/audio/butterfly_US.mp3,null,NA,NA
data_2025-04-07-16-10-17.468706_6t6oh94iyv,null,NA,audio-button-response,19,536234,0.0-0.0-7.0-12.0,NA,resource/audio/butterfly_NZ.mp3,null,NA,NA
data_2025-04-07-16-10-17.468706_6t6oh94iyv,null,NA,audio-button-response,20,538090,0.0-0.0-7.0-13.0,NA,resource/audio/butterfly_TR.mp3,null,NA,NA
data_2025-04-07-16-10-17.468706_6t6oh94iyv,882.0999999642372,NA,audio-button-response,21,539222,0.0-0.0-7.0-14.0,NA,resource/audio/blank.mp3,0,"butterfly_NZ.mp3,butterfly_TR.mp3",NA
data_2025-04-07-16-10-17.468706_6t6oh94iyv,782.7000000476837,NA,instructions,22,540256,0.0-0.0-7.0-15.0,"[{""page_index"":0,""viewing_time"":782.5}]",NA,NA,NA,NA
data_2025-04-07-16-10-17.468706_6t6oh94iyv,null,NA,audio-button-response,23,542271,0.0-0.0-7.0-16.0,NA,resource/audio/tuna_US.mp3,null,NA,NA
data_2025-04-07-16-10-17.468706_6t6oh94iyv,null,NA,audio-button-response,24,544767,0.0-0.0-7.0-17.0,NA,resource/audio/tuna_TR.mp3,null,NA,NA
data_2025-04-07-16-10-17.468706_6t6oh94iyv,null,NA,audio-button-response,25,548223,0.0-0.0-7.0-18.0,NA,resource/audio/tuna_NZ.mp3,null,NA,NA
data_2025-04-07-16-10-17.468706_6t6oh94iyv,6869.699999988079,NA,audio-button-response,26,555344,0.0-0.0-7.0-19.0,NA,resource/audio/blank.mp3,0,"tuna_TR.mp3,tuna_NZ.mp3",NA
data_2025-04-07-16-10-17.468706_6t6oh94iyv,1298.6000000238419,NA,instructions,27,556894,0.0-0.0-7.0-20.0,"[{""page_index"":0,""viewing_time"":1298.5}]",NA,NA,NA,NA
data_2025-04-07-16-10-17.468706_6t6oh94iyv,null,NA,audio-button-response,28,558186,0.0-0.0-7.0-21.0,NA,resource/audio/giraffe_US.mp3,null,NA,NA
data_2025-04-07-16-10-17.468706_6t6oh94iyv,null,NA,audio-button-response,29,561386,0.0-0.0-7.0-22.0,NA,resource/audio/giraffe_NZ.mp3,null,NA,NA
data_2025-04-07-16-10-17.468706_6t6oh94iyv,null,NA,audio-button-response,30,562687,0.0-0.0-7.0-23.0,NA,resource/audio/giraffe_TR.mp3,null,NA,NA
data_2025-04-07-16-10-17.468706_6t6oh94iyv,1008.0999999642372,NA,audio-button-response,31,563947,0.0-0.0-7.0-24.0,NA,resource/audio/blank.mp3,1,"giraffe_NZ.mp3,giraffe_TR.mp3",NA
data_2025-04-07-16-10-17.468706_6t6oh94iyv,965.9000000357628,NA,instructions,32,565164,0.0-0.0-7.0-25.0,"[{""page_index"":0,""viewing_time"":965.6999999880791}]",NA,NA,NA,NA
data_2025-04-07-16-10-17.468706_6t6oh94iyv,null,NA,audio-button-response,33,566975,0.0-0.0-7.0-26.0,NA,resource/audio/washer_US.mp3,null,NA,NA
data_2025-04-07-16-10-17.468706_6t6oh94iyv,null,NA,audio-button-response,34,569236,0.0-0.0-7.0-27.0,NA,resource/audio/washer_TR.mp3,null,NA,NA
data_2025-04-07-16-10-17.468706_6t6oh94iyv,null,NA,audio-button-response,35,572458,0.0-0.0-7.0-28.0,NA,resource/audio/washer_NZ.mp3,null,NA,NA
data_2025-04-07-16-10-17.468706_6t6oh94iyv,674.1000000238419,NA,audio-button-response,36,573383,0.0-0.0-7.0-29.0,NA,resource/audio/blank.mp3,0,"washer_TR.mp3,washer_NZ.mp3",NA
data_2025-04-07-16-10-17.468706_6t6oh94iyv,1015.9000000357628,NA,instructions,37,574650,0.0-0.0-7.0-30.0,"[{""page_index"":0,""viewing_time"":1015.8000000119209}]",NA,NA,NA,NA
data_2025-04-07-16-10-17.468706_6t6oh94iyv,null,NA,audio-button-response,38,576020,0.0-0.0-7.0-31.0,NA,resource/audio/fiance_US.mp3,null,NA,NA
data_2025-04-07-16-10-17.468706_6t6oh94iyv,null,NA,audio-button-response,39,580181,0.0-0.0-7.0-32.0,NA,resource/audio/fiance_NZ.mp3,null,NA,NA
data_2025-04-07-16-10-17.468706_6t6oh94iyv,null,NA,audio-button-response,40,581588,0.0-0.0-7.0-33.0,NA,resource/audio/fiance_TR.mp3,null,NA,NA
data_2025-04-07-16-10-17.468706_6t6oh94iyv,1196,NA,audio-button-response,41,583037,0.0-0.0-7.0-34.0,NA,resource/audio/blank.mp3,1,"fiance_NZ.mp3,fiance_TR.mp3",NA
data_2025-04-07-16-10-17.468706_6t6oh94iyv,1099.199999988079,NA,instructions,42,584387,0.0-0.0-7.0-35.0,"[{""page_index"":0,""viewing_time"":1099}]",NA,NA,NA,NA
data_2025-04-07-16-10-17.468706_6t6oh94iyv,null,NA,audio-button-response,43,586410,0.0-0.0-7.0-36.0,NA,resource/audio/freezer_US.mp3,null,NA,NA
data_2025-04-07-16-10-17.468706_6t6oh94iyv,null,NA,audio-button-response,44,588436,0.0-0.0-7.0-37.0,NA,resource/audio/freezer_TR.mp3,null,NA,NA
data_2025-04-07-16-10-17.468706_6t6oh94iyv,null,NA,audio-button-response,45,593450,0.0-0.0-7.0-38.0,NA,resource/audio/freezer_NZ.mp3,null,NA,NA
data_2025-04-07-16-10-17.468706_6t6oh94iyv,522.1000000238419,NA,audio-button-response,46,594224,0.0-0.0-7.0-39.0,NA,resource/audio/blank.mp3,0,"freezer_TR.mp3,freezer_NZ.mp3",NA
data_2025-04-07-16-10-17.468706_6t6oh94iyv,898.3999999761581,NA,instructions,47,595374,0.0-0.0-7.0-40.0,"[{""page_index"":0,""viewing_time"":898.1999999880791}]",NA,NA,NA,NA
data_2025-04-07-16-10-17.468706_6t6oh94iyv,null,NA,audio-button-response,48,596970,0.0-0.0-7.0-41.0,NA,resource/audio/caterpillar_US.mp3,null,NA,NA
data_2025-04-07-16-10-17.468706_6t6oh94iyv,null,NA,audio-button-response,49,600298,0.0-0.0-7.0-42.0,NA,resource/audio/caterpillar_NZ.mp3,null,NA,NA
data_2025-04-07-16-10-17.468706_6t6oh94iyv,null,NA,audio-button-response,50,601599,0.0-0.0-7.0-43.0,NA,resource/audio/caterpillar_TR.mp3,null,NA,NA
data_2025-04-07-16-10-17.468706_6t6oh94iyv,791.5,NA,audio-button-response,51,602643,0.0-0.0-7.0-44.0,NA,resource/audio/blank.mp3,0,"caterpillar_NZ.mp3,caterpillar_TR.mp3",NA
data_2025-04-07-16-10-17.468706_6t6oh94iyv,781.8000000119209,NA,instructions,52,603676,0.0-0.0-7.0-45.0,"[{""page_index"":0,""viewing_time"":781.7000000476837}]",NA,NA,NA,NA
data_2025-04-07-16-10-17.468706_6t6oh94iyv,null,NA,audio-button-response,53,605439,0.0-0.0-7.0-46.0,NA,resource/audio/diamond_US.mp3,null,NA,NA
data_2025-04-07-16-10-17.468706_6t6oh94iyv,null,NA,audio-button-response,54,610026,0.0-0.0-7.0-47.0,NA,resource/audio/diamond_NZ.mp3,null,NA,NA
data_2025-04-07-16-10-17.468706_6t6oh94iyv,null,NA,audio-button-response,55,612159,0.0-0.0-7.0-48.0,NA,resource/audio/diamond_TR.mp3,null,NA,NA
data_2025-04-07-16-10-17.468706_6t6oh94iyv,418.5,NA,audio-button-response,56,612830,0.0-0.0-7.0-49.0,NA,resource/audio/blank.mp3,0,"diamond_NZ.mp3,diamond_TR.mp3",NA
data_2025-04-07-16-10-17.468706_6t6oh94iyv,715.2999999523163,NA,instructions,57,613796,0.0-0.0-7.0-50.0,"[{""page_index"":0,""viewing_time"":715.1999999880791}]",NA,NA,NA,NA
data_2025-04-07-16-10-17.468706_6t6oh94iyv,null,NA,audio-button-response,58,615807,0.0-0.0-7.0-51.0,NA,resource/audio/gadget_US.mp3,null,NA,NA
data_2025-04-07-16-10-17.468706_6t6oh94iyv,null,NA,audio-button-response,59,619178,0.0-0.0-7.0-52.0,NA,resource/audio/gadget_NZ.mp3,null,NA,NA
data_2025-04-07-16-10-17.468706_6t6oh94iyv,null,NA,audio-button-response,60,621738,0.0-0.0-7.0-53.0,NA,resource/audio/gadget_TR.mp3,null,NA,NA
data_2025-04-07-16-10-17.468706_6t6oh94iyv,459.39999997615814,NA,audio-button-response,61,622449,0.0-0.0-7.0-54.0,NA,resource/audio/blank.mp3,0,"gadget_NZ.mp3,gadget_TR.mp3",NA
data_2025-04-07-16-10-17.468706_6t6oh94iyv,683.3999999761581,NA,instructions,62,623383,0.0-0.0-7.0-55.0,"[{""page_index"":0,""viewing_time"":683.2999999523163}]",NA,NA,NA,NA
data_2025-04-07-16-10-17.468706_6t6oh94iyv,null,NA,audio-button-response,63,625983,0.0-0.0-7.0-56.0,NA,resource/audio/tiger_US.mp3,null,NA,NA
data_2025-04-07-16-10-17.468706_6t6oh94iyv,null,NA,audio-button-response,64,629077,0.0-0.0-7.0-57.0,NA,resource/audio/tiger_NZ.mp3,null,NA,NA
data_2025-04-07-16-10-17.468706_6t6oh94iyv,null,NA,audio-button-response,65,631316,0.0-0.0-7.0-58.0,NA,resource/audio/tiger_TR.mp3,null,NA,NA
data_2025-04-07-16-10-17.468706_6t6oh94iyv,566.6000000238419,NA,audio-button-response,66,632135,0.0-0.0-7.0-59.0,NA,resource/audio/blank.mp3,1,"tiger_NZ.mp3,tiger_TR.mp3",NA
data_2025-04-07-16-10-17.468706_6t6oh94iyv,649.3000000119209,NA,instructions,67,633036,0.0-0.0-7.0-60.0,"[{""page_index"":0,""viewing_time"":649.0999999642372}]",NA,NA,NA,NA
data_2025-04-07-16-10-17.468706_6t6oh94iyv,null,NA,audio-button-response,68,634474,0.0-0.0-7.0-61.0,NA,resource/audio/flower_US.mp3,null,NA,NA
data_2025-04-07-16-10-17.468706_6t6oh94iyv,null,NA,audio-button-response,69,637866,0.0-0.0-7.0-62.0,NA,resource/audio/flower_NZ.mp3,null,NA,NA
data_2025-04-07-16-10-17.468706_6t6oh94iyv,null,NA,audio-button-response,70,640127,0.0-0.0-7.0-63.0,NA,resource/audio/flower_TR.mp3,null,NA,NA
data_2025-04-07-16-10-17.468706_6t6oh94iyv,591.8999999761581,NA,audio-button-response,71,640971,0.0-0.0-7.0-64.0,NA,resource/audio/blank.mp3,1,"flower_NZ.mp3,flower_TR.mp3",NA
data_2025-04-07-16-10-17.468706_6t6oh94iyv,648.7999999523163,NA,instructions,72,641871,0.0-0.0-7.0-65.0,"[{""page_index"":0,""viewing_time"":648.6999999880791}]",NA,NA,NA,NA
data_2025-04-07-16-10-17.468706_6t6oh94iyv,null,NA,audio-button-response,73,644266,0.0-0.0-7.0-66.0,NA,resource/audio/spider_US.mp3,null,NA,NA
data_2025-04-07-16-10-17.468706_6t6oh94iyv,null,NA,audio-button-response,74,646548,0.0-0.0-7.0-67.0,NA,resource/audio/spider_TR.mp3,null,NA,NA
data_2025-04-07-16-10-17.468706_6t6oh94iyv,null,NA,audio-button-response,75,649706,0.0-0.0-7.0-68.0,NA,resource/audio/spider_NZ.mp3,null,NA,NA
data_2025-04-07-16-10-17.468706_6t6oh94iyv,649.8999999761581,NA,audio-button-response,76,650608,0.0-0.0-7.0-69.0,NA,resource/audio/blank.mp3,0,"spider_TR.mp3,spider_NZ.mp3",NA
data_2025-04-07-16-10-17.468706_6t6oh94iyv,682.3999999761581,NA,instructions,77,651541,0.0-0.0-7.0-70.0,"[{""page_index"":0,""viewing_time"":682.3000000119209}]",NA,NA,NA,NA
data_2025-04-07-16-10-17.468706_6t6oh94iyv,null,NA,audio-button-response,78,653332,0.0-0.0-7.0-71.0,NA,resource/audio/palace_US.mp3,null,NA,NA
data_2025-04-07-16-10-17.468706_6t6oh94iyv,null,NA,audio-button-response,79,656959,0.0-0.0-7.0-72.0,NA,resource/audio/palace_NZ.mp3,null,NA,NA
data_2025-04-07-16-10-17.468706_6t6oh94iyv,null,NA,audio-button-response,80,659519,0.0-0.0-7.0-73.0,NA,resource/audio/palace_TR.mp3,null,NA,NA
data_2025-04-07-16-10-17.468706_6t6oh94iyv,507.30000001192093,NA,audio-button-response,81,660278,0.0-0.0-7.0-74.0,NA,resource/audio/blank.mp3,1,"palace_NZ.mp3,palace_TR.mp3",NA
data_2025-04-07-16-10-17.468706_6t6oh94iyv,598.3999999761581,NA,instructions,82,661128,0.0-0.0-7.0-75.0,"[{""page_index"":0,""viewing_time"":598.3000000119209}]",NA,NA,NA,NA
data_2025-04-07-16-10-17.468706_6t6oh94iyv,null,NA,audio-button-response,83,662805,0.0-0.0-7.0-76.0,NA,resource/audio/salmon_US.mp3,null,NA,NA
data_2025-04-07-16-10-17.468706_6t6oh94iyv,null,NA,audio-button-response,84,665386,0.0-0.0-7.0-77.0,NA,resource/audio/salmon_TR.mp3,null,NA,NA
data_2025-04-07-16-10-17.468706_6t6oh94iyv,null,NA,audio-button-response,85,668863,0.0-0.0-7.0-78.0,NA,resource/audio/salmon_NZ.mp3,null,NA,NA
data_2025-04-07-16-10-17.468706_6t6oh94iyv,631.1999999880791,NA,audio-button-response,86,669747,0.0-0.0-7.0-79.0,NA,resource/audio/blank.mp3,1,"salmon_TR.mp3,salmon_NZ.mp3",NA
data_2025-04-07-16-10-17.468706_6t6oh94iyv,648.3000000119209,NA,instructions,87,670647,0.0-0.0-7.0-80.0,"[{""page_index"":0,""viewing_time"":648.3000000119209}]",NA,NA,NA,NA
data_2025-04-07-16-10-17.468706_6t6oh94iyv,null,NA,audio-button-response,88,672276,0.0-0.0-7.0-81.0,NA,resource/audio/woodpecker_US.mp3,null,NA,NA
data_2025-04-07-16-10-17.468706_6t6oh94iyv,null,NA,audio-button-response,89,673599,0.0-0.0-7.0-82.0,NA,resource/audio/woodpecker_TR.mp3,null,NA,NA
data_2025-04-07-16-10-17.468706_6t6oh94iyv,null,NA,audio-button-response,90,676735,0.0-0.0-7.0-83.0,NA,resource/audio/woodpecker_NZ.mp3,null,NA,NA
data_2025-04-07-16-10-17.468706_6t6oh94iyv,712.2999999523163,NA,audio-button-response,91,677700,0.0-0.0-7.0-84.0,NA,resource/audio/blank.mp3,0,"woodpecker_TR.mp3,woodpecker_NZ.mp3",NA
data_2025-04-07-16-10-17.468706_6t6oh94iyv,1099.6000000238419,NA,instructions,92,679051,0.0-0.0-7.0-85.0,"[{""page_index"":0,""viewing_time"":1099.5}]",NA,NA,NA,NA
data_2025-04-07-16-10-17.468706_6t6oh94iyv,null,NA,audio-button-response,93,680575,0.0-0.0-7.0-86.0,NA,resource/audio/goldfish_US.mp3,null,NA,NA
data_2025-04-07-16-10-17.468706_6t6oh94iyv,null,NA,audio-button-response,94,684479,0.0-0.0-7.0-87.0,NA,resource/audio/goldfish_NZ.mp3,null,NA,NA
data_2025-04-07-16-10-17.468706_6t6oh94iyv,null,NA,audio-button-response,95,685994,0.0-0.0-7.0-88.0,NA,resource/audio/goldfish_TR.mp3,null,NA,NA
data_2025-04-07-16-10-17.468706_6t6oh94iyv,457.10000002384186,NA,audio-button-response,96,686703,0.0-0.0-7.0-89.0,NA,resource/audio/blank.mp3,1,"goldfish_NZ.mp3,goldfish_TR.mp3",NA
data_2025-04-07-16-10-17.468706_6t6oh94iyv,649.6999999880791,NA,instructions,97,687603,0.0-0.0-7.0-90.0,"[{""page_index"":0,""viewing_time"":649.5}]",NA,NA,NA,NA
data_2025-04-07-16-10-17.468706_6t6oh94iyv,null,NA,audio-button-response,98,688981,0.0-0.0-7.0-91.0,NA,resource/audio/bloodhound_US.mp3,null,NA,NA
data_2025-04-07-16-10-17.468706_6t6oh94iyv,null,NA,audio-button-response,99,690367,0.0-0.0-7.0-92.0,NA,resource/audio/bloodhound_TR.mp3,null,NA,NA
data_2025-04-07-16-10-17.468706_6t6oh94iyv,null,NA,audio-button-response,100,693269,0.0-0.0-7.0-93.0,NA,resource/audio/bloodhound_NZ.mp3,null,NA,NA
data_2025-04-07-16-10-17.468706_6t6oh94iyv,417.80000001192093,NA,audio-button-response,101,693939,0.0-0.0-7.0-94.0,NA,resource/audio/blank.mp3,1,"bloodhound_TR.mp3,bloodhound_NZ.mp3",NA
data_2025-04-07-16-10-17.468706_6t6oh94iyv,648.3000000119209,NA,instructions,102,694839,0.0-0.0-7.0-95.0,"[{""page_index"":0,""viewing_time"":648.1999999880791}]",NA,NA,NA,NA
data_2025-04-07-16-10-17.468706_6t6oh94iyv,null,NA,audio-button-response,103,696831,0.0-0.0-7.0-96.0,NA,resource/audio/garage_US.mp3,null,NA,NA
data_2025-04-07-16-10-17.468706_6t6oh94iyv,null,NA,audio-button-response,104,699071,0.0-0.0-7.0-97.0,NA,resource/audio/garage_TR.mp3,null,NA,NA
data_2025-04-07-16-10-17.468706_6t6oh94iyv,null,NA,audio-button-response,105,702805,0.0-0.0-7.0-98.0,NA,resource/audio/garage_NZ.mp3,null,NA,NA
data_2025-04-07-16-10-17.468706_6t6oh94iyv,1268.300000011921,NA,audio-button-response,106,704325,0.0-0.0-7.0-99.0,NA,resource/audio/blank.mp3,1,"garage_TR.mp3,garage_NZ.mp3",NA
data_2025-04-07-16-10-17.468706_6t6oh94iyv,615.1999999880791,NA,instructions,107,705192,0.0-0.0-7.0-100.0,"[{""page_index"":0,""viewing_time"":615.0999999642372}]",NA,NA,NA,NA
data_2025-04-07-16-10-17.468706_6t6oh94iyv,null,NA,audio-button-response,108,706794,0.0-0.0-7.0-101.0,NA,resource/audio/reindeer_US.mp3,null,NA,NA
data_2025-04-07-16-10-17.468706_6t6oh94iyv,null,NA,audio-button-response,109,709546,0.0-0.0-7.0-102.0,NA,resource/audio/reindeer_TR.mp3,null,NA,NA
data_2025-04-07-16-10-17.468706_6t6oh94iyv,null,NA,audio-button-response,110,712085,0.0-0.0-7.0-103.0,NA,resource/audio/reindeer_NZ.mp3,null,NA,NA
data_2025-04-07-16-10-17.468706_6t6oh94iyv,409,NA,audio-button-response,111,712745,0.0-0.0-7.0-104.0,NA,resource/audio/blank.mp3,0,"reindeer_TR.mp3,reindeer_NZ.mp3",NA
data_2025-04-07-16-10-17.468706_6t6oh94iyv,582.6999999880791,NA,instructions,112,713578,0.0-0.0-7.0-105.0,"[{""page_index"":0,""viewing_time"":582.5}]",NA,NA,NA,NA
data_2025-04-07-16-10-17.468706_6t6oh94iyv,null,NA,audio-button-response,113,715754,0.0-0.0-7.0-106.0,NA,resource/audio/toothbrush_US.mp3,null,NA,NA
data_2025-04-07-16-10-17.468706_6t6oh94iyv,null,NA,audio-button-response,114,717909,0.0-0.0-7.0-107.0,NA,resource/audio/toothbrush_TR.mp3,null,NA,NA
data_2025-04-07-16-10-17.468706_6t6oh94iyv,null,NA,audio-button-response,115,721407,0.0-0.0-7.0-108.0,NA,resource/audio/toothbrush_NZ.mp3,null,NA,NA
data_2025-04-07-16-10-17.468706_6t6oh94iyv,604.6000000238419,NA,audio-button-response,116,722264,0.0-0.0-7.0-109.0,NA,resource/audio/blank.mp3,1,"toothbrush_TR.mp3,toothbrush_NZ.mp3",NA
data_2025-04-07-16-10-17.468706_6t6oh94iyv,883.2999999523163,NA,instructions,117,723398,0.0-0.0-7.0-110.0,"[{""page_index"":0,""viewing_time"":883.2999999523163}]",NA,NA,NA,NA
data_2025-04-07-16-10-17.468706_6t6oh94iyv,null,NA,audio-button-response,118,724778,0.0-0.0-7.0-111.0,NA,resource/audio/rattlesnake_US.mp3,null,NA,NA
data_2025-04-07-16-10-17.468706_6t6oh94iyv,null,NA,audio-button-response,119,726101,0.0-0.0-7.0-112.0,NA,resource/audio/rattlesnake_TR.mp3,null,NA,NA
data_2025-04-07-16-10-17.468706_6t6oh94iyv,null,NA,audio-button-response,120,729599,0.0-0.0-7.0-113.0,NA,resource/audio/rattlesnake_NZ.mp3,null,NA,NA
data_2025-04-07-16-10-17.468706_6t6oh94iyv,432.19999998807907,NA,audio-button-response,121,730283,0.0-0.0-7.0-114.0,NA,resource/audio/blank.mp3,1,"rattlesnake_TR.mp3,rattlesnake_NZ.mp3",NA
data_2025-04-07-16-10-17.468706_6t6oh94iyv,516.2000000476837,NA,instructions,122,731050,0.0-0.0-7.0-115.0,"[{""page_index"":0,""viewing_time"":516.1000000238419}]",NA,NA,NA,NA
data_2025-04-07-16-10-17.468706_6t6oh94iyv,null,NA,audio-button-response,123,732394,0.0-0.0-7.0-116.0,NA,resource/audio/zebra_US.mp3,null,NA,NA
data_2025-04-07-16-10-17.468706_6t6oh94iyv,null,NA,audio-button-response,124,735487,0.0-0.0-7.0-117.0,NA,resource/audio/zebra_NZ.mp3,null,NA,NA
data_2025-04-07-16-10-17.468706_6t6oh94iyv,null,NA,audio-button-response,125,736810,0.0-0.0-7.0-118.0,NA,resource/audio/zebra_TR.mp3,null,NA,NA
data_2025-04-07-16-10-17.468706_6t6oh94iyv,458.60000002384186,NA,audio-button-response,126,737520,0.0-0.0-7.0-119.0,NA,resource/audio/blank.mp3,0,"zebra_NZ.mp3,zebra_TR.mp3",NA
data_2025-04-07-16-10-17.468706_6t6oh94iyv,466.5,NA,instructions,127,738236,0.0-0.0-7.0-120.0,"[{""page_index"":0,""viewing_time"":466.5}]",NA,NA,NA,NA
data_2025-04-07-16-10-17.468706_6t6oh94iyv,null,NA,audio-button-response,128,739989,0.0-0.0-7.0-121.0,NA,resource/audio/fiber_US.mp3,null,NA,NA
data_2025-04-07-16-10-17.468706_6t6oh94iyv,null,NA,audio-button-response,129,742079,0.0-0.0-7.0-122.0,NA,resource/audio/fiber_TR.mp3,null,NA,NA
data_2025-04-07-16-10-17.468706_6t6oh94iyv,null,NA,audio-button-response,130,744938,0.0-0.0-7.0-123.0,NA,resource/audio/fiber_NZ.mp3,null,NA,NA
data_2025-04-07-16-10-17.468706_6t6oh94iyv,3365.399999976158,NA,audio-button-response,131,748556,0.0-0.0-7.0-124.0,NA,resource/audio/blank.mp3,1,"fiber_TR.mp3,fiber_NZ.mp3",NA
data_2025-04-07-16-10-17.468706_6t6oh94iyv,865.8999999761581,NA,instructions,132,749673,0.0-0.0-7.0-125.0,"[{""page_index"":0,""viewing_time"":865.7999999523163}]",NA,NA,NA,NA
data_2025-04-07-16-10-17.468706_6t6oh94iyv,null,NA,audio-button-response,133,751018,0.0-0.0-7.0-126.0,NA,resource/audio/parasite_US.mp3,null,NA,NA
data_2025-04-07-16-10-17.468706_6t6oh94iyv,null,NA,audio-button-response,134,752426,0.0-0.0-7.0-127.0,NA,resource/audio/parasite_TR.mp3,null,NA,NA
data_2025-04-07-16-10-17.468706_6t6oh94iyv,null,NA,audio-button-response,135,755797,0.0-0.0-7.0-128.0,NA,resource/audio/parasite_NZ.mp3,null,NA,NA
data_2025-04-07-16-10-17.468706_6t6oh94iyv,376,NA,audio-button-response,136,756425,0.0-0.0-7.0-129.0,NA,resource/audio/blank.mp3,1,"parasite_TR.mp3,parasite_NZ.mp3",NA
data_2025-04-07-16-10-17.468706_6t6oh94iyv,682,NA,instructions,137,757358,0.0-0.0-7.0-130.0,"[{""page_index"":0,""viewing_time"":682}]",NA,NA,NA,NA
data_2025-04-07-16-10-17.468706_6t6oh94iyv,null,NA,audio-button-response,138,758933,0.0-0.0-7.0-131.0,NA,resource/audio/manicure_US.mp3,null,NA,NA
data_2025-04-07-16-10-17.468706_6t6oh94iyv,null,NA,audio-button-response,139,761664,0.0-0.0-7.0-132.0,NA,resource/audio/manicure_NZ.mp3,null,NA,NA
data_2025-04-07-16-10-17.468706_6t6oh94iyv,null,NA,audio-button-response,140,763669,0.0-0.0-7.0-133.0,NA,resource/audio/manicure_TR.mp3,null,NA,NA
data_2025-04-07-16-10-17.468706_6t6oh94iyv,491.4000000357628,NA,audio-button-response,141,764411,0.0-0.0-7.0-134.0,NA,resource/audio/blank.mp3,0,"manicure_NZ.mp3,manicure_TR.mp3",NA
data_2025-04-07-16-10-17.468706_6t6oh94iyv,732.1000000238419,NA,instructions,142,765394,0.0-0.0-7.0-135.0,"[{""page_index"":0,""viewing_time"":732.1000000238419}]",NA,NA,NA,NA
data_2025-04-07-16-10-17.468706_6t6oh94iyv,null,NA,audio-button-response,143,768063,0.0-0.0-7.0-136.0,NA,resource/audio/missile_US.mp3,null,NA,NA
data_2025-04-07-16-10-17.468706_6t6oh94iyv,null,NA,audio-button-response,144,771221,0.0-0.0-7.0-137.0,NA,resource/audio/missile_NZ.mp3,null,NA,NA
data_2025-04-07-16-10-17.468706_6t6oh94iyv,null,NA,audio-button-response,145,773248,0.0-0.0-7.0-138.0,NA,resource/audio/missile_TR.mp3,null,NA,NA
data_2025-04-07-16-10-17.468706_6t6oh94iyv,2682.099999964237,NA,audio-button-response,146,776181,0.0-0.0-7.0-139.0,NA,resource/audio/blank.mp3,1,"missile_NZ.mp3,missile_TR.mp3",NA
data_2025-04-07-16-10-17.468706_6t6oh94iyv,598.8999999761581,NA,instructions,147,777031,0.0-0.0-7.0-140.0,"[{""page_index"":0,""viewing_time"":598.8000000119209}]",NA,NA,NA,NA
data_2025-04-07-16-10-17.468706_6t6oh94iyv,null,NA,audio-button-response,148,778496,0.0-0.0-7.0-141.0,NA,resource/audio/gazelle_US.mp3,null,NA,NA
data_2025-04-07-16-10-17.468706_6t6oh94iyv,null,NA,audio-button-response,149,781162,0.0-0.0-7.0-142.0,NA,resource/audio/gazelle_NZ.mp3,null,NA,NA
data_2025-04-07-16-10-17.468706_6t6oh94iyv,null,NA,audio-button-response,150,782506,0.0-0.0-7.0-143.0,NA,resource/audio/gazelle_TR.mp3,null,NA,NA
data_2025-04-07-16-10-17.468706_6t6oh94iyv,3092.600000023842,NA,audio-button-response,151,785851,0.0-0.0-7.0-144.0,NA,resource/audio/blank.mp3,0,"gazelle_NZ.mp3,gazelle_TR.mp3",NA
data_2025-04-07-16-10-17.468706_6t6oh94iyv,866.3999999761581,NA,instructions,152,786968,0.0-0.0-7.0-145.0,"[{""page_index"":0,""viewing_time"":866.2999999523163}]",NA,NA,NA,NA
data_2025-04-07-16-10-17.468706_6t6oh94iyv,null,NA,audio-button-response,153,789077,0.0-0.0-7.0-146.0,NA,resource/audio/elephant_US.mp3,null,NA,NA
data_2025-04-07-16-10-17.468706_6t6oh94iyv,null,NA,audio-button-response,154,791317,0.0-0.0-7.0-147.0,NA,resource/audio/elephant_TR.mp3,null,NA,NA
data_2025-04-07-16-10-17.468706_6t6oh94iyv,null,NA,audio-button-response,155,794346,0.0-0.0-7.0-148.0,NA,resource/audio/elephant_NZ.mp3,null,NA,NA
data_2025-04-07-16-10-17.468706_6t6oh94iyv,388.19999998807907,NA,audio-button-response,156,794987,0.0-0.0-7.0-149.0,NA,resource/audio/blank.mp3,1,"elephant_TR.mp3,elephant_NZ.mp3",NA
data_2025-04-07-16-10-17.468706_6t6oh94iyv,398247.6999999881,NA,html-keyboard-response,157,1193487,0.0-0.0-8.0,NA,"<p>Thank you for your participation, your responses have been recorded!</p>
  <p>To receive full credit, please complete the following demographic form. Click <a target=""_blank"" rel=""noopener noreferrer"" href=""https://utexas.qualtrics.com/jfe/form/SV_es5YLeHNdLkWZ4W"">here</a> to proceed.</p>",NA,NA,32
