file_id,rt,responses,trial_type,trial_index,time_elapsed,internal_node_id,view_history,stimulus,button_pressed,speakers,key_press
data_2025-04-08-13-06-44.228722_ar1inzmnqo,5690.400000035763,"{""Participant ID"":""006""}",survey-text,0,5702,0.0-0.0-0.0-0.0,NA,NA,NA,NA,NA
data_2025-04-08-13-06-44.228722_ar1inzmnqo,2253017.5999999642,NA,instructions,1,2258702,0.0-0.0-1.0,"[{""page_index"":0,""viewing_time"":2253017.399999976}]",NA,NA,NA,NA
data_2025-04-08-13-06-44.228722_ar1inzmnqo,15736.800000011921,NA,instructions,2,2274690,0.0-0.0-2.0,"[{""page_index"":0,""viewing_time"":15736.699999988079}]",NA,NA,NA,NA
data_2025-04-08-13-06-44.228722_ar1inzmnqo,3016.800000011921,NA,instructions,3,2277958,0.0-0.0-3.0,"[{""page_index"":0,""viewing_time"":3016.600000023842}]",NA,NA,NA,NA
data_2025-04-08-13-06-44.228722_ar1inzmnqo,1049.3999999761581,NA,instructions,4,2279258,0.0-0.0-4.0,"[{""page_index"":0,""viewing_time"":1049.199999988079}]",NA,NA,NA,NA
data_2025-04-08-13-06-44.228722_ar1inzmnqo,4717.399999976158,NA,instructions,5,2284227,0.0-0.0-5.0,"[{""page_index"":0,""viewing_time"":4717.299999952316}]",NA,NA,NA,NA
data_2025-04-08-13-06-44.228722_ar1inzmnqo,1415,NA,instructions,6,2285894,0.0-0.0-6.0,"[{""page_index"":0,""viewing_time"":1414.9000000357628}]",NA,NA,NA,NA
data_2025-04-08-13-06-44.228722_ar1inzmnqo,932,NA,instructions,7,2287077,0.0-0.0-7.0-0.0,"[{""page_index"":0,""viewing_time"":932}]",NA,NA,NA,NA
data_2025-04-08-13-06-44.228722_ar1inzmnqo,null,NA,audio-button-response,8,2289297,0.0-0.0-7.0-1.0,NA,resource/audio/tuna_US.mp3,null,NA,NA
data_2025-04-08-13-06-44.228722_ar1inzmnqo,null,NA,audio-button-response,9,2291793,0.0-0.0-7.0-2.0,NA,resource/audio/tuna_TR.mp3,null,NA,NA
data_2025-04-08-13-06-44.228722_ar1inzmnqo,null,NA,audio-button-response,10,2295228,0.0-0.0-7.0-3.0,NA,resource/audio/tuna_NZ.mp3,null,NA,NA
data_2025-04-08-13-06-44.228722_ar1inzmnqo,1383.6000000238419,NA,audio-button-response,11,2296864,0.0-0.0-7.0-4.0,NA,resource/audio/blank.mp3,1,"tuna_TR.mp3,tuna_NZ.mp3",NA
data_2025-04-08-13-06-44.228722_ar1inzmnqo,1331.300000011921,NA,instructions,12,2298447,0.0-0.0-7.0-5.0,"[{""page_index"":0,""viewing_time"":1331.199999988079}]",NA,NA,NA,NA
data_2025-04-08-13-06-44.228722_ar1inzmnqo,null,NA,audio-button-response,13,2299793,0.0-0.0-7.0-6.0,NA,resource/audio/penguin_US.mp3,null,NA,NA
data_2025-04-08-13-06-44.228722_ar1inzmnqo,null,NA,audio-button-response,14,2301137,0.0-0.0-7.0-7.0,NA,resource/audio/penguin_TR.mp3,null,NA,NA
data_2025-04-08-13-06-44.228722_ar1inzmnqo,null,NA,audio-button-response,15,2304145,0.0-0.0-7.0-8.0,NA,resource/audio/penguin_NZ.mp3,null,NA,NA
data_2025-04-08-13-06-44.228722_ar1inzmnqo,4638.5,NA,audio-button-response,16,2309035,0.0-0.0-7.0-9.0,NA,resource/audio/blank.mp3,0,"penguin_TR.mp3,penguin_NZ.mp3",NA
data_2025-04-08-13-06-44.228722_ar1inzmnqo,1883,NA,instructions,17,2311168,0.0-0.0-7.0-10.0,"[{""page_index"":0,""viewing_time"":1882.800000011921}]",NA,NA,NA,NA
data_2025-04-08-13-06-44.228722_ar1inzmnqo,null,NA,audio-button-response,18,2312785,0.0-0.0-7.0-11.0,NA,resource/audio/armour_US.mp3,null,NA,NA
data_2025-04-08-13-06-44.228722_ar1inzmnqo,null,NA,audio-button-response,19,2315943,0.0-0.0-7.0-12.0,NA,resource/audio/armour_NZ.mp3,null,NA,NA
data_2025-04-08-13-06-44.228722_ar1inzmnqo,null,NA,audio-button-response,20,2318310,0.0-0.0-7.0-13.0,NA,resource/audio/armour_TR.mp3,null,NA,NA
data_2025-04-08-13-06-44.228722_ar1inzmnqo,1358.5,NA,audio-button-response,21,2319921,0.0-0.0-7.0-14.0,NA,resource/audio/blank.mp3,1,"armour_NZ.mp3,armour_TR.mp3",NA
data_2025-04-08-13-06-44.228722_ar1inzmnqo,1465.8999999761581,NA,instructions,22,2321638,0.0-0.0-7.0-15.0,"[{""page_index"":0,""viewing_time"":1465.800000011921}]",NA,NA,NA,NA
data_2025-04-08-13-06-44.228722_ar1inzmnqo,null,NA,audio-button-response,23,2323579,0.0-0.0-7.0-16.0,NA,resource/audio/freeway_US.mp3,null,NA,NA
data_2025-04-08-13-06-44.228722_ar1inzmnqo,null,NA,audio-button-response,24,2326481,0.0-0.0-7.0-17.0,NA,resource/audio/freeway_NZ.mp3,null,NA,NA
data_2025-04-08-13-06-44.228722_ar1inzmnqo,null,NA,audio-button-response,25,2328358,0.0-0.0-7.0-18.0,NA,resource/audio/freeway_TR.mp3,null,NA,NA
data_2025-04-08-13-06-44.228722_ar1inzmnqo,2880.5,NA,audio-button-response,26,2331491,0.0-0.0-7.0-19.0,NA,resource/audio/blank.mp3,0,"freeway_NZ.mp3,freeway_TR.mp3",NA
data_2025-04-08-13-06-44.228722_ar1inzmnqo,1082,NA,instructions,27,2332824,0.0-0.0-7.0-20.0,"[{""page_index"":0,""viewing_time"":1081.800000011921}]",NA,NA,NA,NA
data_2025-04-08-13-06-44.228722_ar1inzmnqo,null,NA,audio-button-response,28,2334972,0.0-0.0-7.0-21.0,NA,resource/audio/mainland_US.mp3,null,NA,NA
data_2025-04-08-13-06-44.228722_ar1inzmnqo,null,NA,audio-button-response,29,2337147,0.0-0.0-7.0-22.0,NA,resource/audio/mainland_TR.mp3,null,NA,NA
data_2025-04-08-13-06-44.228722_ar1inzmnqo,null,NA,audio-button-response,30,2340710,0.0-0.0-7.0-23.0,NA,resource/audio/mainland_NZ.mp3,null,NA,NA
data_2025-04-08-13-06-44.228722_ar1inzmnqo,1481.8999999761581,NA,audio-button-response,31,2342444,0.0-0.0-7.0-24.0,NA,resource/audio/blank.mp3,0,"mainland_TR.mp3,mainland_NZ.mp3",NA
data_2025-04-08-13-06-44.228722_ar1inzmnqo,1015.6999999880791,NA,instructions,32,2343711,0.0-0.0-7.0-25.0,"[{""page_index"":0,""viewing_time"":1015.5999999642372}]",NA,NA,NA,NA
data_2025-04-08-13-06-44.228722_ar1inzmnqo,null,NA,audio-button-response,33,2345318,0.0-0.0-7.0-26.0,NA,resource/audio/swordfish_US.mp3,null,NA,NA
data_2025-04-08-13-06-44.228722_ar1inzmnqo,null,NA,audio-button-response,34,2346790,0.0-0.0-7.0-27.0,NA,resource/audio/swordfish_TR.mp3,null,NA,NA
data_2025-04-08-13-06-44.228722_ar1inzmnqo,null,NA,audio-button-response,35,2350332,0.0-0.0-7.0-28.0,NA,resource/audio/swordfish_NZ.mp3,null,NA,NA
data_2025-04-08-13-06-44.228722_ar1inzmnqo,1180.1000000238419,NA,audio-button-response,36,2351764,0.0-0.0-7.0-29.0,NA,resource/audio/blank.mp3,0,"swordfish_TR.mp3,swordfish_NZ.mp3",NA
data_2025-04-08-13-06-44.228722_ar1inzmnqo,1215.5,NA,instructions,37,2353231,0.0-0.0-7.0-30.0,"[{""page_index"":0,""viewing_time"":1215.4000000357628}]",NA,NA,NA,NA
data_2025-04-08-13-06-44.228722_ar1inzmnqo,null,NA,audio-button-response,38,2354918,0.0-0.0-7.0-31.0,NA,resource/audio/octopus_US.mp3,null,NA,NA
data_2025-04-08-13-06-44.228722_ar1inzmnqo,null,NA,audio-button-response,39,2356411,0.0-0.0-7.0-32.0,NA,resource/audio/octopus_TR.mp3,null,NA,NA
data_2025-04-08-13-06-44.228722_ar1inzmnqo,null,NA,audio-button-response,40,2359505,0.0-0.0-7.0-33.0,NA,resource/audio/octopus_NZ.mp3,null,NA,NA
data_2025-04-08-13-06-44.228722_ar1inzmnqo,1227,NA,audio-button-response,41,2360983,0.0-0.0-7.0-34.0,NA,resource/audio/blank.mp3,1,"octopus_TR.mp3,octopus_NZ.mp3",NA
data_2025-04-08-13-06-44.228722_ar1inzmnqo,1115.800000011921,NA,instructions,42,2362350,0.0-0.0-7.0-35.0,"[{""page_index"":0,""viewing_time"":1115.7000000476837}]",NA,NA,NA,NA
data_2025-04-08-13-06-44.228722_ar1inzmnqo,null,NA,audio-button-response,43,2364625,0.0-0.0-7.0-36.0,NA,resource/audio/laptop_US.mp3,null,NA,NA
data_2025-04-08-13-06-44.228722_ar1inzmnqo,null,NA,audio-button-response,44,2368209,0.0-0.0-7.0-37.0,NA,resource/audio/laptop_NZ.mp3,null,NA,NA
data_2025-04-08-13-06-44.228722_ar1inzmnqo,null,NA,audio-button-response,45,2370790,0.0-0.0-7.0-38.0,NA,resource/audio/laptop_TR.mp3,null,NA,NA
data_2025-04-08-13-06-44.228722_ar1inzmnqo,827.3000000119209,NA,audio-button-response,46,2371870,0.0-0.0-7.0-39.0,NA,resource/audio/blank.mp3,1,"laptop_NZ.mp3,laptop_TR.mp3",NA
data_2025-04-08-13-06-44.228722_ar1inzmnqo,983.5,NA,instructions,47,2373104,0.0-0.0-7.0-40.0,"[{""page_index"":0,""viewing_time"":983.3999999761581}]",NA,NA,NA,NA
data_2025-04-08-13-06-44.228722_ar1inzmnqo,null,NA,audio-button-response,48,2375099,0.0-0.0-7.0-41.0,NA,resource/audio/wallet_US.mp3,null,NA,NA
data_2025-04-08-13-06-44.228722_ar1inzmnqo,null,NA,audio-button-response,49,2377104,0.0-0.0-7.0-42.0,NA,resource/audio/wallet_TR.mp3,null,NA,NA
data_2025-04-08-13-06-44.228722_ar1inzmnqo,null,NA,audio-button-response,50,2380518,0.0-0.0-7.0-43.0,NA,resource/audio/wallet_NZ.mp3,null,NA,NA
data_2025-04-08-13-06-44.228722_ar1inzmnqo,919.3000000119209,NA,audio-button-response,51,2381690,0.0-0.0-7.0-44.0,NA,resource/audio/blank.mp3,1,"wallet_TR.mp3,wallet_NZ.mp3",NA
data_2025-04-08-13-06-44.228722_ar1inzmnqo,715.6000000238419,NA,instructions,52,2382657,0.0-0.0-7.0-45.0,"[{""page_index"":0,""viewing_time"":715.3999999761581}]",NA,NA,NA,NA
data_2025-04-08-13-06-44.228722_ar1inzmnqo,null,NA,audio-button-response,53,2384102,0.0-0.0-7.0-46.0,NA,resource/audio/flower_US.mp3,null,NA,NA
data_2025-04-08-13-06-44.228722_ar1inzmnqo,null,NA,audio-button-response,54,2387494,0.0-0.0-7.0-47.0,NA,resource/audio/flower_NZ.mp3,null,NA,NA
data_2025-04-08-13-06-44.228722_ar1inzmnqo,null,NA,audio-button-response,55,2389755,0.0-0.0-7.0-48.0,NA,resource/audio/flower_TR.mp3,null,NA,NA
data_2025-04-08-13-06-44.228722_ar1inzmnqo,4103.600000023842,NA,audio-button-response,56,2394111,0.0-0.0-7.0-49.0,NA,resource/audio/blank.mp3,0,"flower_NZ.mp3,flower_TR.mp3",NA
data_2025-04-08-13-06-44.228722_ar1inzmnqo,799.8000000119209,NA,instructions,57,2395161,0.0-0.0-7.0-50.0,"[{""page_index"":0,""viewing_time"":799.8000000119209}]",NA,NA,NA,NA
data_2025-04-08-13-06-44.228722_ar1inzmnqo,null,NA,audio-button-response,58,2396603,0.0-0.0-7.0-51.0,NA,resource/audio/shellfish_US.mp3,null,NA,NA
data_2025-04-08-13-06-44.228722_ar1inzmnqo,null,NA,audio-button-response,59,2397926,0.0-0.0-7.0-52.0,NA,resource/audio/shellfish_TR.mp3,null,NA,NA
data_2025-04-08-13-06-44.228722_ar1inzmnqo,null,NA,audio-button-response,60,2400849,0.0-0.0-7.0-53.0,NA,resource/audio/shellfish_NZ.mp3,null,NA,NA
data_2025-04-08-13-06-44.228722_ar1inzmnqo,1313.300000011921,NA,audio-button-response,61,2402413,0.0-0.0-7.0-54.0,NA,resource/audio/blank.mp3,1,"shellfish_TR.mp3,shellfish_NZ.mp3",NA
data_2025-04-08-13-06-44.228722_ar1inzmnqo,732,NA,instructions,62,2403396,0.0-0.0-7.0-55.0,"[{""page_index"":0,""viewing_time"":731.8000000119209}]",NA,NA,NA,NA
data_2025-04-08-13-06-44.228722_ar1inzmnqo,null,NA,audio-button-response,63,2405243,0.0-0.0-7.0-56.0,NA,resource/audio/duffle_US.mp3,null,NA,NA
data_2025-04-08-13-06-44.228722_ar1inzmnqo,null,NA,audio-button-response,64,2407142,0.0-0.0-7.0-57.0,NA,resource/audio/duffle_TR.mp3,null,NA,NA
data_2025-04-08-13-06-44.228722_ar1inzmnqo,null,NA,audio-button-response,65,2410107,0.0-0.0-7.0-58.0,NA,resource/audio/duffle_NZ.mp3,null,NA,NA
data_2025-04-08-13-06-44.228722_ar1inzmnqo,1290.300000011921,NA,audio-button-response,66,2411649,0.0-0.0-7.0-59.0,NA,resource/audio/blank.mp3,1,"duffle_TR.mp3,duffle_NZ.mp3",NA
data_2025-04-08-13-06-44.228722_ar1inzmnqo,3832.5,NA,instructions,67,2415734,0.0-0.0-7.0-60.0,"[{""page_index"":0,""viewing_time"":3832.300000011921}]",NA,NA,NA,NA
data_2025-04-08-13-06-44.228722_ar1inzmnqo,null,NA,audio-button-response,68,2417126,0.0-0.0-7.0-61.0,NA,resource/audio/crocodile_US.mp3,null,NA,NA
data_2025-04-08-13-06-44.228722_ar1inzmnqo,null,NA,audio-button-response,69,2418470,0.0-0.0-7.0-62.0,NA,resource/audio/crocodile_TR.mp3,null,NA,NA
data_2025-04-08-13-06-44.228722_ar1inzmnqo,null,NA,audio-button-response,70,2421499,0.0-0.0-7.0-63.0,NA,resource/audio/crocodile_NZ.mp3,null,NA,NA
data_2025-04-08-13-06-44.228722_ar1inzmnqo,1834.5,NA,audio-button-response,71,2423586,0.0-0.0-7.0-64.0,NA,resource/audio/blank.mp3,1,"crocodile_TR.mp3,crocodile_NZ.mp3",NA
data_2025-04-08-13-06-44.228722_ar1inzmnqo,1066.8999999761581,NA,instructions,72,2424904,0.0-0.0-7.0-65.0,"[{""page_index"":0,""viewing_time"":1066.800000011921}]",NA,NA,NA,NA
data_2025-04-08-13-06-44.228722_ar1inzmnqo,null,NA,audio-button-response,73,2426064,0.0-0.0-7.0-66.0,NA,resource/audio/makeup_US.mp3,null,NA,NA
data_2025-04-08-13-06-44.228722_ar1inzmnqo,null,NA,audio-button-response,74,2427920,0.0-0.0-7.0-67.0,NA,resource/audio/makeup_TR.mp3,null,NA,NA
data_2025-04-08-13-06-44.228722_ar1inzmnqo,null,NA,audio-button-response,75,2431846,0.0-0.0-7.0-68.0,NA,resource/audio/makeup_NZ.mp3,null,NA,NA
data_2025-04-08-13-06-44.228722_ar1inzmnqo,1240.800000011921,NA,audio-button-response,76,2433339,0.0-0.0-7.0-69.0,NA,resource/audio/blank.mp3,0,"makeup_TR.mp3,makeup_NZ.mp3",NA
data_2025-04-08-13-06-44.228722_ar1inzmnqo,1416.199999988079,NA,instructions,77,2435007,0.0-0.0-7.0-70.0,"[{""page_index"":0,""viewing_time"":1416}]",NA,NA,NA,NA
data_2025-04-08-13-06-44.228722_ar1inzmnqo,null,NA,audio-button-response,78,2436944,0.0-0.0-7.0-71.0,NA,resource/audio/butter_US.mp3,null,NA,NA
data_2025-04-08-13-06-44.228722_ar1inzmnqo,null,NA,audio-button-response,79,2440208,0.0-0.0-7.0-72.0,NA,resource/audio/butter_NZ.mp3,null,NA,NA
data_2025-04-08-13-06-44.228722_ar1inzmnqo,null,NA,audio-button-response,80,2442299,0.0-0.0-7.0-73.0,NA,resource/audio/butter_TR.mp3,null,NA,NA
data_2025-04-08-13-06-44.228722_ar1inzmnqo,1475.1000000238419,NA,audio-button-response,81,2444026,0.0-0.0-7.0-74.0,NA,resource/audio/blank.mp3,1,"butter_NZ.mp3,butter_TR.mp3",NA
data_2025-04-08-13-06-44.228722_ar1inzmnqo,1148.9000000357628,NA,instructions,82,2445426,0.0-0.0-7.0-75.0,"[{""page_index"":0,""viewing_time"":1148.800000011921}]",NA,NA,NA,NA
data_2025-04-08-13-06-44.228722_ar1inzmnqo,null,NA,audio-button-response,83,2447035,0.0-0.0-7.0-76.0,NA,resource/audio/snake_US.mp3,null,NA,NA
data_2025-04-08-13-06-44.228722_ar1inzmnqo,null,NA,audio-button-response,84,2448229,0.0-0.0-7.0-77.0,NA,resource/audio/snake_TR.mp3,null,NA,NA
data_2025-04-08-13-06-44.228722_ar1inzmnqo,null,NA,audio-button-response,85,2451792,0.0-0.0-7.0-78.0,NA,resource/audio/snake_NZ.mp3,null,NA,NA
data_2025-04-08-13-06-44.228722_ar1inzmnqo,1117.6000000238419,NA,audio-button-response,86,2453162,0.0-0.0-7.0-79.0,NA,resource/audio/blank.mp3,0,"snake_TR.mp3,snake_NZ.mp3",NA
data_2025-04-08-13-06-44.228722_ar1inzmnqo,1299.8999999761581,NA,instructions,87,2454713,0.0-0.0-7.0-80.0,"[{""page_index"":0,""viewing_time"":1299.6000000238419}]",NA,NA,NA,NA
data_2025-04-08-13-06-44.228722_ar1inzmnqo,null,NA,audio-button-response,88,2457360,0.0-0.0-7.0-81.0,NA,resource/audio/kitten_US.mp3,null,NA,NA
data_2025-04-08-13-06-44.228722_ar1inzmnqo,null,NA,audio-button-response,89,2459579,0.0-0.0-7.0-82.0,NA,resource/audio/kitten_TR.mp3,null,NA,NA
data_2025-04-08-13-06-44.228722_ar1inzmnqo,null,NA,audio-button-response,90,2462907,0.0-0.0-7.0-83.0,NA,resource/audio/kitten_NZ.mp3,null,NA,NA
data_2025-04-08-13-06-44.228722_ar1inzmnqo,1156.5,NA,audio-button-response,91,2464316,0.0-0.0-7.0-84.0,NA,resource/audio/blank.mp3,0,"kitten_TR.mp3,kitten_NZ.mp3",NA
data_2025-04-08-13-06-44.228722_ar1inzmnqo,832.5,NA,instructions,92,2465400,0.0-0.0-7.0-85.0,"[{""page_index"":0,""viewing_time"":832.3999999761581}]",NA,NA,NA,NA
data_2025-04-08-13-06-44.228722_ar1inzmnqo,null,NA,audio-button-response,93,2466789,0.0-0.0-7.0-86.0,NA,resource/audio/fiance_US.mp3,null,NA,NA
data_2025-04-08-13-06-44.228722_ar1inzmnqo,null,NA,audio-button-response,94,2470949,0.0-0.0-7.0-87.0,NA,resource/audio/fiance_NZ.mp3,null,NA,NA
data_2025-04-08-13-06-44.228722_ar1inzmnqo,null,NA,audio-button-response,95,2472357,0.0-0.0-7.0-88.0,NA,resource/audio/fiance_TR.mp3,null,NA,NA
data_2025-04-08-13-06-44.228722_ar1inzmnqo,2225.900000035763,NA,audio-button-response,96,2474836,0.0-0.0-7.0-89.0,NA,resource/audio/blank.mp3,0,"fiance_NZ.mp3,fiance_TR.mp3",NA
data_2025-04-08-13-06-44.228722_ar1inzmnqo,1264.699999988079,NA,instructions,97,2476352,0.0-0.0-7.0-90.0,"[{""page_index"":0,""viewing_time"":1264.6000000238419}]",NA,NA,NA,NA
data_2025-04-08-13-06-44.228722_ar1inzmnqo,null,NA,audio-button-response,98,2477755,0.0-0.0-7.0-91.0,NA,resource/audio/dolphin_US.mp3,null,NA,NA
data_2025-04-08-13-06-44.228722_ar1inzmnqo,null,NA,audio-button-response,99,2479077,0.0-0.0-7.0-92.0,NA,resource/audio/dolphin_TR.mp3,null,NA,NA
data_2025-04-08-13-06-44.228722_ar1inzmnqo,null,NA,audio-button-response,100,2482811,0.0-0.0-7.0-93.0,NA,resource/audio/dolphin_NZ.mp3,null,NA,NA
data_2025-04-08-13-06-44.228722_ar1inzmnqo,1042.800000011921,NA,audio-button-response,101,2484105,0.0-0.0-7.0-94.0,NA,resource/audio/blank.mp3,0,"dolphin_TR.mp3,dolphin_NZ.mp3",NA
data_2025-04-08-13-06-44.228722_ar1inzmnqo,948.5,NA,instructions,102,2485306,0.0-0.0-7.0-95.0,"[{""page_index"":0,""viewing_time"":948.4000000357628}]",NA,NA,NA,NA
data_2025-04-08-13-06-44.228722_ar1inzmnqo,null,NA,audio-button-response,103,2487760,0.0-0.0-7.0-96.0,NA,resource/audio/sunscreen_US.mp3,null,NA,NA
data_2025-04-08-13-06-44.228722_ar1inzmnqo,null,NA,audio-button-response,104,2489296,0.0-0.0-7.0-97.0,NA,resource/audio/sunscreen_TR.mp3,null,NA,NA
data_2025-04-08-13-06-44.228722_ar1inzmnqo,null,NA,audio-button-response,105,2493072,0.0-0.0-7.0-98.0,NA,resource/audio/sunscreen_NZ.mp3,null,NA,NA
data_2025-04-08-13-06-44.228722_ar1inzmnqo,1217,NA,audio-button-response,106,2494542,0.0-0.0-7.0-99.0,NA,resource/audio/blank.mp3,1,"sunscreen_TR.mp3,sunscreen_NZ.mp3",NA
data_2025-04-08-13-06-44.228722_ar1inzmnqo,932.3999999761581,NA,instructions,107,2495725,0.0-0.0-7.0-100.0,"[{""page_index"":0,""viewing_time"":932.2999999523163}]",NA,NA,NA,NA
data_2025-04-08-13-06-44.228722_ar1inzmnqo,null,NA,audio-button-response,108,2497083,0.0-0.0-7.0-101.0,NA,resource/audio/oyster_US.mp3,null,NA,NA
data_2025-04-08-13-06-44.228722_ar1inzmnqo,null,NA,audio-button-response,109,2500155,0.0-0.0-7.0-102.0,NA,resource/audio/oyster_NZ.mp3,null,NA,NA
data_2025-04-08-13-06-44.228722_ar1inzmnqo,null,NA,audio-button-response,110,2501520,0.0-0.0-7.0-103.0,NA,resource/audio/oyster_TR.mp3,null,NA,NA
data_2025-04-08-13-06-44.228722_ar1inzmnqo,871.9000000357628,NA,audio-button-response,111,2502644,0.0-0.0-7.0-104.0,NA,resource/audio/blank.mp3,0,"oyster_NZ.mp3,oyster_TR.mp3",NA
data_2025-04-08-13-06-44.228722_ar1inzmnqo,1165.8999999761581,NA,instructions,112,2504062,0.0-0.0-7.0-105.0,"[{""page_index"":0,""viewing_time"":1165.800000011921}]",NA,NA,NA,NA
data_2025-04-08-13-06-44.228722_ar1inzmnqo,null,NA,audio-button-response,113,2505786,0.0-0.0-7.0-106.0,NA,resource/audio/bagel_US.mp3,null,NA,NA
data_2025-04-08-13-06-44.228722_ar1inzmnqo,null,NA,audio-button-response,114,2507706,0.0-0.0-7.0-107.0,NA,resource/audio/bagel_TR.mp3,null,NA,NA
data_2025-04-08-13-06-44.228722_ar1inzmnqo,null,NA,audio-button-response,115,2511653,0.0-0.0-7.0-108.0,NA,resource/audio/bagel_NZ.mp3,null,NA,NA
data_2025-04-08-13-06-44.228722_ar1inzmnqo,1124.699999988079,NA,audio-button-response,116,2513030,0.0-0.0-7.0-109.0,NA,resource/audio/blank.mp3,0,"bagel_TR.mp3,bagel_NZ.mp3",NA
data_2025-04-08-13-06-44.228722_ar1inzmnqo,883.6000000238419,NA,instructions,117,2514165,0.0-0.0-7.0-110.0,"[{""page_index"":0,""viewing_time"":883.5}]",NA,NA,NA,NA
data_2025-04-08-13-06-44.228722_ar1inzmnqo,null,NA,audio-button-response,118,2515536,0.0-0.0-7.0-111.0,NA,resource/audio/corral_US.mp3,null,NA,NA
data_2025-04-08-13-06-44.228722_ar1inzmnqo,null,NA,audio-button-response,119,2518608,0.0-0.0-7.0-112.0,NA,resource/audio/corral_NZ.mp3,null,NA,NA
data_2025-04-08-13-06-44.228722_ar1inzmnqo,null,NA,audio-button-response,120,2519738,0.0-0.0-7.0-113.0,NA,resource/audio/corral_TR.mp3,null,NA,NA
data_2025-04-08-13-06-44.228722_ar1inzmnqo,3293.100000023842,NA,audio-button-response,121,2523283,0.0-0.0-7.0-114.0,NA,resource/audio/blank.mp3,1,"corral_NZ.mp3,corral_TR.mp3",NA
data_2025-04-08-13-06-44.228722_ar1inzmnqo,1067.1000000238419,NA,instructions,122,2524601,0.0-0.0-7.0-115.0,"[{""page_index"":0,""viewing_time"":1067}]",NA,NA,NA,NA
data_2025-04-08-13-06-44.228722_ar1inzmnqo,null,NA,audio-button-response,123,2526669,0.0-0.0-7.0-116.0,NA,resource/audio/buttermilk_US.mp3,null,NA,NA
data_2025-04-08-13-06-44.228722_ar1inzmnqo,null,NA,audio-button-response,124,2528287,0.0-0.0-7.0-117.0,NA,resource/audio/buttermilk_TR.mp3,null,NA,NA
data_2025-04-08-13-06-44.228722_ar1inzmnqo,null,NA,audio-button-response,125,2531630,0.0-0.0-7.0-118.0,NA,resource/audio/buttermilk_NZ.mp3,null,NA,NA
data_2025-04-08-13-06-44.228722_ar1inzmnqo,3076.699999988079,NA,audio-button-response,126,2534954,0.0-0.0-7.0-119.0,NA,resource/audio/blank.mp3,1,"buttermilk_TR.mp3,buttermilk_NZ.mp3,buttermilk_NZ.mp3,buttermilk_TR.mp3",NA
data_2025-04-08-13-06-44.228722_ar1inzmnqo,1165.1000000238419,NA,instructions,127,2536369,0.0-0.0-7.0-120.0,"[{""page_index"":0,""viewing_time"":1164.9000000357628}]",NA,NA,NA,NA
data_2025-04-08-13-06-44.228722_ar1inzmnqo,null,NA,audio-button-response,128,2539258,0.0-0.0-7.0-121.0,NA,resource/audio/photograph_US.mp3,null,NA,NA
data_2025-04-08-13-06-44.228722_ar1inzmnqo,null,NA,audio-button-response,129,2541709,0.0-0.0-7.0-122.0,NA,resource/audio/photograph_TR.mp3,null,NA,NA
data_2025-04-08-13-06-44.228722_ar1inzmnqo,null,NA,audio-button-response,130,2545439,0.0-0.0-7.0-123.0,NA,resource/audio/photograph_NZ.mp3,null,NA,NA
data_2025-04-08-13-06-44.228722_ar1inzmnqo,839.6000000238419,NA,audio-button-response,131,2546530,0.0-0.0-7.0-124.0,NA,resource/audio/blank.mp3,0,"photograph_TR.mp3,photograph_NZ.mp3",NA
data_2025-04-08-13-06-44.228722_ar1inzmnqo,848.2000000476837,NA,instructions,132,2547629,0.0-0.0-7.0-125.0,"[{""page_index"":0,""viewing_time"":848.1000000238419}]",NA,NA,NA,NA
data_2025-04-08-13-06-44.228722_ar1inzmnqo,null,NA,audio-button-response,133,2549703,0.0-0.0-7.0-126.0,NA,resource/audio/aquarium_US.mp3,null,NA,NA
data_2025-04-08-13-06-44.228722_ar1inzmnqo,null,NA,audio-button-response,134,2551836,0.0-0.0-7.0-127.0,NA,resource/audio/aquarium_TR.mp3,null,NA,NA
data_2025-04-08-13-06-44.228722_ar1inzmnqo,null,NA,audio-button-response,135,2555503,0.0-0.0-7.0-128.0,NA,resource/audio/aquarium_NZ.mp3,null,NA,NA
data_2025-04-08-13-06-44.228722_ar1inzmnqo,689.5,NA,audio-button-response,136,2556445,0.0-0.0-7.0-129.0,NA,resource/audio/blank.mp3,1,"aquarium_TR.mp3,aquarium_NZ.mp3",NA
data_2025-04-08-13-06-44.228722_ar1inzmnqo,699.5,NA,instructions,137,2557395,0.0-0.0-7.0-130.0,"[{""page_index"":0,""viewing_time"":699.2999999523163}]",NA,NA,NA,NA
data_2025-04-08-13-06-44.228722_ar1inzmnqo,null,NA,audio-button-response,138,2558553,0.0-0.0-7.0-131.0,NA,resource/audio/cricket_US.mp3,null,NA,NA
data_2025-04-08-13-06-44.228722_ar1inzmnqo,null,NA,audio-button-response,139,2561710,0.0-0.0-7.0-132.0,NA,resource/audio/cricket_NZ.mp3,null,NA,NA
data_2025-04-08-13-06-44.228722_ar1inzmnqo,null,NA,audio-button-response,140,2562861,0.0-0.0-7.0-133.0,NA,resource/audio/cricket_TR.mp3,null,NA,NA
data_2025-04-08-13-06-44.228722_ar1inzmnqo,783.3000000119209,NA,audio-button-response,141,2563896,0.0-0.0-7.0-134.0,NA,resource/audio/blank.mp3,0,"cricket_NZ.mp3,cricket_TR.mp3",NA
data_2025-04-08-13-06-44.228722_ar1inzmnqo,781.7000000476837,NA,instructions,142,2564929,0.0-0.0-7.0-135.0,"[{""page_index"":0,""viewing_time"":781.6000000238419}]",NA,NA,NA,NA
data_2025-04-08-13-06-44.228722_ar1inzmnqo,null,NA,audio-button-response,143,2566999,0.0-0.0-7.0-136.0,NA,resource/audio/scrapbook_US.mp3,null,NA,NA
data_2025-04-08-13-06-44.228722_ar1inzmnqo,null,NA,audio-button-response,144,2569964,0.0-0.0-7.0-137.0,NA,resource/audio/scrapbook_NZ.mp3,null,NA,NA
data_2025-04-08-13-06-44.228722_ar1inzmnqo,null,NA,audio-button-response,145,2571884,0.0-0.0-7.0-138.0,NA,resource/audio/scrapbook_TR.mp3,null,NA,NA
data_2025-04-08-13-06-44.228722_ar1inzmnqo,660.0999999642372,NA,audio-button-response,146,2572796,0.0-0.0-7.0-139.0,NA,resource/audio/blank.mp3,0,"scrapbook_NZ.mp3,scrapbook_TR.mp3",NA
data_2025-04-08-13-06-44.228722_ar1inzmnqo,983.0999999642372,NA,instructions,147,2574031,0.0-0.0-7.0-140.0,"[{""page_index"":0,""viewing_time"":982.8999999761581}]",NA,NA,NA,NA
data_2025-04-08-13-06-44.228722_ar1inzmnqo,null,NA,audio-button-response,148,2576043,0.0-0.0-7.0-141.0,NA,resource/audio/garage_US.mp3,null,NA,NA
data_2025-04-08-13-06-44.228722_ar1inzmnqo,null,NA,audio-button-response,149,2578283,0.0-0.0-7.0-142.0,NA,resource/audio/garage_TR.mp3,null,NA,NA
data_2025-04-08-13-06-44.228722_ar1inzmnqo,null,NA,audio-button-response,150,2582016,0.0-0.0-7.0-143.0,NA,resource/audio/garage_NZ.mp3,null,NA,NA
data_2025-04-08-13-06-44.228722_ar1inzmnqo,847,NA,audio-button-response,151,2583115,0.0-0.0-7.0-144.0,NA,resource/audio/blank.mp3,1,"garage_TR.mp3,garage_NZ.mp3",NA
data_2025-04-08-13-06-44.228722_ar1inzmnqo,700.6999999880791,NA,instructions,152,2584066,0.0-0.0-7.0-145.0,"[{""page_index"":0,""viewing_time"":700.5999999642372}]",NA,NA,NA,NA
data_2025-04-08-13-06-44.228722_ar1inzmnqo,null,NA,audio-button-response,153,2585408,0.0-0.0-7.0-146.0,NA,resource/audio/zebra_US.mp3,null,NA,NA
data_2025-04-08-13-06-44.228722_ar1inzmnqo,null,NA,audio-button-response,154,2588501,0.0-0.0-7.0-147.0,NA,resource/audio/zebra_NZ.mp3,null,NA,NA
data_2025-04-08-13-06-44.228722_ar1inzmnqo,null,NA,audio-button-response,155,2589823,0.0-0.0-7.0-148.0,NA,resource/audio/zebra_TR.mp3,null,NA,NA
data_2025-04-08-13-06-44.228722_ar1inzmnqo,626.7999999523163,NA,audio-button-response,156,2590701,0.0-0.0-7.0-149.0,NA,resource/audio/blank.mp3,0,"zebra_NZ.mp3,zebra_TR.mp3",NA
data_2025-04-08-13-06-44.228722_ar1inzmnqo,246483,NA,html-keyboard-response,157,2837431,0.0-0.0-8.0,NA,"<p>Thank you for your participation, your responses have been recorded!</p>
  <p>To receive full credit, please complete the following demographic form. Click <a target=""_blank"" rel=""noopener noreferrer"" href=""https://utexas.qualtrics.com/jfe/form/SV_es5YLeHNdLkWZ4W"">here</a> to proceed.</p>",NA,NA,32
