file_id,rt,responses,trial_type,trial_index,time_elapsed,internal_node_id,view_history,stimulus,button_pressed,speakers,key_press
data_2025-04-08-13-28-11.281654_anfdwo1sv2,3219.899999976158,"{""Participant ID"":""007""}",survey-text,0,3232,0.0-0.0-0.0-0.0,NA,NA,NA,NA,NA
data_2025-04-08-13-28-11.281654_anfdwo1sv2,737827.8000000119,NA,instructions,1,741049,0.0-0.0-1.0,"[{""page_index"":0,""viewing_time"":737827.5999999642}]",NA,NA,NA,NA
data_2025-04-08-13-28-11.281654_anfdwo1sv2,7617.399999976158,NA,instructions,2,748918,0.0-0.0-2.0,"[{""page_index"":0,""viewing_time"":7617.199999988079}]",NA,NA,NA,NA
data_2025-04-08-13-28-11.281654_anfdwo1sv2,8301.300000011921,NA,instructions,3,757471,0.0-0.0-3.0,"[{""page_index"":0,""viewing_time"":8301.300000011921}]",NA,NA,NA,NA
data_2025-04-08-13-28-11.281654_anfdwo1sv2,9385,NA,instructions,4,767107,0.0-0.0-4.0,"[{""page_index"":0,""viewing_time"":9384.800000011921}]",NA,NA,NA,NA
data_2025-04-08-13-28-11.281654_anfdwo1sv2,2999.2000000476837,NA,instructions,5,770358,0.0-0.0-5.0,"[{""page_index"":0,""viewing_time"":2999.2000000476837}]",NA,NA,NA,NA
data_2025-04-08-13-28-11.281654_anfdwo1sv2,1615.7000000476837,NA,instructions,6,772225,0.0-0.0-6.0,"[{""page_index"":0,""viewing_time"":1615.6000000238419}]",NA,NA,NA,NA
data_2025-04-08-13-28-11.281654_anfdwo1sv2,948.3999999761581,NA,instructions,7,773426,0.0-0.0-7.0-0.0,"[{""page_index"":0,""viewing_time"":948.3000000119209}]",NA,NA,NA,NA
data_2025-04-08-13-28-11.281654_anfdwo1sv2,null,NA,audio-button-response,8,774981,0.0-0.0-7.0-1.0,NA,resource/audio/bloodhound_US.mp3,null,NA,NA
data_2025-04-08-13-28-11.281654_anfdwo1sv2,null,NA,audio-button-response,9,776367,0.0-0.0-7.0-2.0,NA,resource/audio/bloodhound_TR.mp3,null,NA,NA
data_2025-04-08-13-28-11.281654_anfdwo1sv2,null,NA,audio-button-response,10,779268,0.0-0.0-7.0-3.0,NA,resource/audio/bloodhound_NZ.mp3,null,NA,NA
data_2025-04-08-13-28-11.281654_anfdwo1sv2,3025,NA,audio-button-response,11,782546,0.0-0.0-7.0-4.0,NA,resource/audio/blank.mp3,0,"bloodhound_TR.mp3,bloodhound_NZ.mp3",NA
data_2025-04-08-13-28-11.281654_anfdwo1sv2,3415.300000011921,NA,instructions,12,786212,0.0-0.0-7.0-5.0,"[{""page_index"":0,""viewing_time"":3415.300000011921}]",NA,NA,NA,NA
data_2025-04-08-13-28-11.281654_anfdwo1sv2,null,NA,audio-button-response,13,788271,0.0-0.0-7.0-6.0,NA,resource/audio/buttermilk_US.mp3,null,NA,NA
data_2025-04-08-13-28-11.281654_anfdwo1sv2,null,NA,audio-button-response,14,791599,0.0-0.0-7.0-7.0,NA,resource/audio/buttermilk_NZ.mp3,null,NA,NA
data_2025-04-08-13-28-11.281654_anfdwo1sv2,null,NA,audio-button-response,15,793220,0.0-0.0-7.0-8.0,NA,resource/audio/buttermilk_TR.mp3,null,NA,NA
data_2025-04-08-13-28-11.281654_anfdwo1sv2,959.8000000119209,NA,audio-button-response,16,794432,0.0-0.0-7.0-9.0,NA,resource/audio/blank.mp3,0,"buttermilk_NZ.mp3,buttermilk_TR.mp3",NA
data_2025-04-08-13-28-11.281654_anfdwo1sv2,1181.6000000238419,NA,instructions,17,795866,0.0-0.0-7.0-10.0,"[{""page_index"":0,""viewing_time"":1181.6000000238419}]",NA,NA,NA,NA
data_2025-04-08-13-28-11.281654_anfdwo1sv2,null,NA,audio-button-response,18,798041,0.0-0.0-7.0-11.0,NA,resource/audio/camel_US.mp3,null,NA,NA
data_2025-04-08-13-28-11.281654_anfdwo1sv2,null,NA,audio-button-response,19,800708,0.0-0.0-7.0-12.0,NA,resource/audio/camel_TR.mp3,null,NA,NA
data_2025-04-08-13-28-11.281654_anfdwo1sv2,null,NA,audio-button-response,20,803759,0.0-0.0-7.0-13.0,NA,resource/audio/camel_NZ.mp3,null,NA,NA
data_2025-04-08-13-28-11.281654_anfdwo1sv2,841,NA,audio-button-response,21,804852,0.0-0.0-7.0-14.0,NA,resource/audio/blank.mp3,0,"camel_TR.mp3,camel_NZ.mp3",NA
data_2025-04-08-13-28-11.281654_anfdwo1sv2,1099.0999999642372,NA,instructions,22,806202,0.0-0.0-7.0-15.0,"[{""page_index"":0,""viewing_time"":1099}]",NA,NA,NA,NA
data_2025-04-08-13-28-11.281654_anfdwo1sv2,null,NA,audio-button-response,23,807534,0.0-0.0-7.0-16.0,NA,resource/audio/possum_US.mp3,null,NA,NA
data_2025-04-08-13-28-11.281654_anfdwo1sv2,null,NA,audio-button-response,24,810521,0.0-0.0-7.0-17.0,NA,resource/audio/possum_NZ.mp3,null,NA,NA
data_2025-04-08-13-28-11.281654_anfdwo1sv2,null,NA,audio-button-response,25,811630,0.0-0.0-7.0-18.0,NA,resource/audio/possum_TR.mp3,null,NA,NA
data_2025-04-08-13-28-11.281654_anfdwo1sv2,589,NA,audio-button-response,26,812471,0.0-0.0-7.0-19.0,NA,resource/audio/blank.mp3,0,"possum_NZ.mp3,possum_TR.mp3",NA
data_2025-04-08-13-28-11.281654_anfdwo1sv2,1015.3999999761581,NA,instructions,27,813738,0.0-0.0-7.0-20.0,"[{""page_index"":0,""viewing_time"":1015.3000000119209}]",NA,NA,NA,NA
data_2025-04-08-13-28-11.281654_anfdwo1sv2,null,NA,audio-button-response,28,815321,0.0-0.0-7.0-21.0,NA,resource/audio/caterpillar_US.mp3,null,NA,NA
data_2025-04-08-13-28-11.281654_anfdwo1sv2,null,NA,audio-button-response,29,816622,0.0-0.0-7.0-22.0,NA,resource/audio/caterpillar_TR.mp3,null,NA,NA
data_2025-04-08-13-28-11.281654_anfdwo1sv2,null,NA,audio-button-response,30,819950,0.0-0.0-7.0-23.0,NA,resource/audio/caterpillar_NZ.mp3,null,NA,NA
data_2025-04-08-13-28-11.281654_anfdwo1sv2,1269.6000000238419,NA,audio-button-response,31,821473,0.0-0.0-7.0-24.0,NA,resource/audio/blank.mp3,1,"caterpillar_TR.mp3,caterpillar_NZ.mp3",NA
data_2025-04-08-13-28-11.281654_anfdwo1sv2,1016.1999999880791,NA,instructions,32,822741,0.0-0.0-7.0-25.0,"[{""page_index"":0,""viewing_time"":1016.0999999642372}]",NA,NA,NA,NA
data_2025-04-08-13-28-11.281654_anfdwo1sv2,null,NA,audio-button-response,33,825070,0.0-0.0-7.0-26.0,NA,resource/audio/rabbit_US.mp3,null,NA,NA
data_2025-04-08-13-28-11.281654_anfdwo1sv2,null,NA,audio-button-response,34,827310,0.0-0.0-7.0-27.0,NA,resource/audio/rabbit_TR.mp3,null,NA,NA
data_2025-04-08-13-28-11.281654_anfdwo1sv2,null,NA,audio-button-response,35,831300,0.0-0.0-7.0-28.0,NA,resource/audio/rabbit_NZ.mp3,null,NA,NA
data_2025-04-08-13-28-11.281654_anfdwo1sv2,575.5,NA,audio-button-response,36,832127,0.0-0.0-7.0-29.0,NA,resource/audio/blank.mp3,0,"rabbit_TR.mp3,rabbit_NZ.mp3",NA
data_2025-04-08-13-28-11.281654_anfdwo1sv2,950,NA,instructions,37,833327,0.0-0.0-7.0-30.0,"[{""page_index"":0,""viewing_time"":949.8000000119209}]",NA,NA,NA,NA
data_2025-04-08-13-28-11.281654_anfdwo1sv2,null,NA,audio-button-response,38,834926,0.0-0.0-7.0-31.0,NA,resource/audio/butterfly_US.mp3,null,NA,NA
data_2025-04-08-13-28-11.281654_anfdwo1sv2,null,NA,audio-button-response,39,836782,0.0-0.0-7.0-32.0,NA,resource/audio/butterfly_TR.mp3,null,NA,NA
data_2025-04-08-13-28-11.281654_anfdwo1sv2,null,NA,audio-button-response,40,839875,0.0-0.0-7.0-33.0,NA,resource/audio/butterfly_NZ.mp3,null,NA,NA
data_2025-04-08-13-28-11.281654_anfdwo1sv2,785.8999999761581,NA,audio-button-response,41,840912,0.0-0.0-7.0-34.0,NA,resource/audio/blank.mp3,1,"butterfly_TR.mp3,butterfly_NZ.mp3",NA
data_2025-04-08-13-28-11.281654_anfdwo1sv2,1033.3999999761581,NA,instructions,42,842197,0.0-0.0-7.0-35.0,"[{""page_index"":0,""viewing_time"":1033.199999988079}]",NA,NA,NA,NA
data_2025-04-08-13-28-11.281654_anfdwo1sv2,null,NA,audio-button-response,43,844227,0.0-0.0-7.0-36.0,NA,resource/audio/barbershop_US.mp3,null,NA,NA
data_2025-04-08-13-28-11.281654_anfdwo1sv2,null,NA,audio-button-response,44,848686,0.0-0.0-7.0-37.0,NA,resource/audio/barbershop_NZ.mp3,null,NA,NA
data_2025-04-08-13-28-11.281654_anfdwo1sv2,null,NA,audio-button-response,45,851096,0.0-0.0-7.0-38.0,NA,resource/audio/barbershop_TR.mp3,null,NA,NA
data_2025-04-08-13-28-11.281654_anfdwo1sv2,1750.8999999761581,NA,audio-button-response,46,853100,0.0-0.0-7.0-39.0,NA,resource/audio/blank.mp3,1,"barbershop_NZ.mp3,barbershop_TR.mp3",NA
data_2025-04-08-13-28-11.281654_anfdwo1sv2,948.8999999761581,NA,instructions,47,854300,0.0-0.0-7.0-40.0,"[{""page_index"":0,""viewing_time"":948.6999999880791}]",NA,NA,NA,NA
data_2025-04-08-13-28-11.281654_anfdwo1sv2,null,NA,audio-button-response,48,856600,0.0-0.0-7.0-41.0,NA,resource/audio/espresso_US.mp3,null,NA,NA
data_2025-04-08-13-28-11.281654_anfdwo1sv2,null,NA,audio-button-response,49,860376,0.0-0.0-7.0-42.0,NA,resource/audio/espresso_NZ.mp3,null,NA,NA
data_2025-04-08-13-28-11.281654_anfdwo1sv2,null,NA,audio-button-response,50,862766,0.0-0.0-7.0-43.0,NA,resource/audio/espresso_TR.mp3,null,NA,NA
data_2025-04-08-13-28-11.281654_anfdwo1sv2,501.89999997615814,NA,audio-button-response,51,863520,0.0-0.0-7.0-44.0,NA,resource/audio/blank.mp3,0,"espresso_NZ.mp3,espresso_TR.mp3",NA
data_2025-04-08-13-28-11.281654_anfdwo1sv2,1215.3999999761581,NA,instructions,52,864986,0.0-0.0-7.0-45.0,"[{""page_index"":0,""viewing_time"":1215.3999999761581}]",NA,NA,NA,NA
data_2025-04-08-13-28-11.281654_anfdwo1sv2,null,NA,audio-button-response,53,866606,0.0-0.0-7.0-46.0,NA,resource/audio/swordfish_US.mp3,null,NA,NA
data_2025-04-08-13-28-11.281654_anfdwo1sv2,null,NA,audio-button-response,54,868078,0.0-0.0-7.0-47.0,NA,resource/audio/swordfish_TR.mp3,null,NA,NA
data_2025-04-08-13-28-11.281654_anfdwo1sv2,null,NA,audio-button-response,55,871619,0.0-0.0-7.0-48.0,NA,resource/audio/swordfish_NZ.mp3,null,NA,NA
data_2025-04-08-13-28-11.281654_anfdwo1sv2,568,NA,audio-button-response,56,872439,0.0-0.0-7.0-49.0,NA,resource/audio/blank.mp3,0,"swordfish_TR.mp3,swordfish_NZ.mp3",NA
data_2025-04-08-13-28-11.281654_anfdwo1sv2,798.8000000119209,NA,instructions,57,873489,0.0-0.0-7.0-50.0,"[{""page_index"":0,""viewing_time"":798.5999999642372}]",NA,NA,NA,NA
data_2025-04-08-13-28-11.281654_anfdwo1sv2,null,NA,audio-button-response,58,875757,0.0-0.0-7.0-51.0,NA,resource/audio/laptop_US.mp3,null,NA,NA
data_2025-04-08-13-28-11.281654_anfdwo1sv2,null,NA,audio-button-response,59,878317,0.0-0.0-7.0-52.0,NA,resource/audio/laptop_TR.mp3,null,NA,NA
data_2025-04-08-13-28-11.281654_anfdwo1sv2,null,NA,audio-button-response,60,881902,0.0-0.0-7.0-53.0,NA,resource/audio/laptop_NZ.mp3,null,NA,NA
data_2025-04-08-13-28-11.281654_anfdwo1sv2,589,NA,audio-button-response,61,882742,0.0-0.0-7.0-54.0,NA,resource/audio/blank.mp3,0,"laptop_TR.mp3,laptop_NZ.mp3",NA
data_2025-04-08-13-28-11.281654_anfdwo1sv2,981.0999999642372,NA,instructions,62,883975,0.0-0.0-7.0-55.0,"[{""page_index"":0,""viewing_time"":981}]",NA,NA,NA,NA
data_2025-04-08-13-28-11.281654_anfdwo1sv2,null,NA,audio-button-response,63,886061,0.0-0.0-7.0-56.0,NA,resource/audio/aquarium_US.mp3,null,NA,NA
data_2025-04-08-13-28-11.281654_anfdwo1sv2,null,NA,audio-button-response,64,888216,0.0-0.0-7.0-57.0,NA,resource/audio/aquarium_TR.mp3,null,NA,NA
data_2025-04-08-13-28-11.281654_anfdwo1sv2,null,NA,audio-button-response,65,891885,0.0-0.0-7.0-58.0,NA,resource/audio/aquarium_NZ.mp3,null,NA,NA
data_2025-04-08-13-28-11.281654_anfdwo1sv2,590.8999999761581,NA,audio-button-response,66,892728,0.0-0.0-7.0-59.0,NA,resource/audio/blank.mp3,1,"aquarium_TR.mp3,aquarium_NZ.mp3",NA
data_2025-04-08-13-28-11.281654_anfdwo1sv2,1014.6999999880791,NA,instructions,67,893995,0.0-0.0-7.0-60.0,"[{""page_index"":0,""viewing_time"":1014.6999999880791}]",NA,NA,NA,NA
data_2025-04-08-13-28-11.281654_anfdwo1sv2,null,NA,audio-button-response,68,895917,0.0-0.0-7.0-61.0,NA,resource/audio/syringe_US.mp3,null,NA,NA
data_2025-04-08-13-28-11.281654_anfdwo1sv2,null,NA,audio-button-response,69,899608,0.0-0.0-7.0-62.0,NA,resource/audio/syringe_NZ.mp3,null,NA,NA
data_2025-04-08-13-28-11.281654_anfdwo1sv2,null,NA,audio-button-response,70,901912,0.0-0.0-7.0-63.0,NA,resource/audio/syringe_TR.mp3,null,NA,NA
data_2025-04-08-13-28-11.281654_anfdwo1sv2,651.3000000119209,NA,audio-button-response,71,902815,0.0-0.0-7.0-64.0,NA,resource/audio/blank.mp3,0,"syringe_NZ.mp3,syringe_TR.mp3",NA
data_2025-04-08-13-28-11.281654_anfdwo1sv2,931.8000000119209,NA,instructions,72,903998,0.0-0.0-7.0-65.0,"[{""page_index"":0,""viewing_time"":931.6000000238419}]",NA,NA,NA,NA
data_2025-04-08-13-28-11.281654_anfdwo1sv2,null,NA,audio-button-response,73,905346,0.0-0.0-7.0-66.0,NA,resource/audio/oyster_US.mp3,null,NA,NA
data_2025-04-08-13-28-11.281654_anfdwo1sv2,null,NA,audio-button-response,74,906712,0.0-0.0-7.0-67.0,NA,resource/audio/oyster_TR.mp3,null,NA,NA
data_2025-04-08-13-28-11.281654_anfdwo1sv2,null,NA,audio-button-response,75,909784,0.0-0.0-7.0-68.0,NA,resource/audio/oyster_NZ.mp3,null,NA,NA
data_2025-04-08-13-28-11.281654_anfdwo1sv2,897,NA,audio-button-response,76,910933,0.0-0.0-7.0-69.0,NA,resource/audio/blank.mp3,0,"oyster_TR.mp3,oyster_NZ.mp3",NA
data_2025-04-08-13-28-11.281654_anfdwo1sv2,734.1000000238419,NA,instructions,77,911918,0.0-0.0-7.0-70.0,"[{""page_index"":0,""viewing_time"":733.8999999761581}]",NA,NA,NA,NA
data_2025-04-08-13-28-11.281654_anfdwo1sv2,null,NA,audio-button-response,78,914263,0.0-0.0-7.0-71.0,NA,resource/audio/matchbook_US.mp3,null,NA,NA
data_2025-04-08-13-28-11.281654_anfdwo1sv2,null,NA,audio-button-response,79,918317,0.0-0.0-7.0-72.0,NA,resource/audio/matchbook_NZ.mp3,null,NA,NA
data_2025-04-08-13-28-11.281654_anfdwo1sv2,null,NA,audio-button-response,80,920087,0.0-0.0-7.0-73.0,NA,resource/audio/matchbook_TR.mp3,null,NA,NA
data_2025-04-08-13-28-11.281654_anfdwo1sv2,497.69999998807907,NA,audio-button-response,81,920836,0.0-0.0-7.0-74.0,NA,resource/audio/blank.mp3,0,"matchbook_NZ.mp3,matchbook_TR.mp3",NA
data_2025-04-08-13-28-11.281654_anfdwo1sv2,1116.800000011921,NA,instructions,82,922204,0.0-0.0-7.0-75.0,"[{""page_index"":0,""viewing_time"":1116.699999988079}]",NA,NA,NA,NA
data_2025-04-08-13-28-11.281654_anfdwo1sv2,null,NA,audio-button-response,83,923437,0.0-0.0-7.0-76.0,NA,resource/audio/critter_US.mp3,null,NA,NA
data_2025-04-08-13-28-11.281654_anfdwo1sv2,null,NA,audio-button-response,84,926765,0.0-0.0-7.0-77.0,NA,resource/audio/critter_NZ.mp3,null,NA,NA
data_2025-04-08-13-28-11.281654_anfdwo1sv2,null,NA,audio-button-response,85,928002,0.0-0.0-7.0-78.0,NA,resource/audio/critter_TR.mp3,null,NA,NA
data_2025-04-08-13-28-11.281654_anfdwo1sv2,2652.800000011921,NA,audio-button-response,86,930906,0.0-0.0-7.0-79.0,NA,resource/audio/blank.mp3,0,"critter_NZ.mp3,critter_TR.mp3",NA
data_2025-04-08-13-28-11.281654_anfdwo1sv2,799.5,NA,instructions,87,931957,0.0-0.0-7.0-80.0,"[{""page_index"":0,""viewing_time"":799.4000000357628}]",NA,NA,NA,NA
data_2025-04-08-13-28-11.281654_anfdwo1sv2,null,NA,audio-button-response,88,933335,0.0-0.0-7.0-81.0,NA,resource/audio/fiance_US.mp3,null,NA,NA
data_2025-04-08-13-28-11.281654_anfdwo1sv2,null,NA,audio-button-response,89,934743,0.0-0.0-7.0-82.0,NA,resource/audio/fiance_TR.mp3,null,NA,NA
data_2025-04-08-13-28-11.281654_anfdwo1sv2,null,NA,audio-button-response,90,938903,0.0-0.0-7.0-83.0,NA,resource/audio/fiance_NZ.mp3,null,NA,NA
data_2025-04-08-13-28-11.281654_anfdwo1sv2,1086,NA,audio-button-response,91,940242,0.0-0.0-7.0-84.0,NA,resource/audio/blank.mp3,0,"fiance_TR.mp3,fiance_NZ.mp3",NA
data_2025-04-08-13-28-11.281654_anfdwo1sv2,1049,NA,instructions,92,941542,0.0-0.0-7.0-85.0,"[{""page_index"":0,""viewing_time"":1048.7999999523163}]",NA,NA,NA,NA
data_2025-04-08-13-28-11.281654_anfdwo1sv2,null,NA,audio-button-response,93,942914,0.0-0.0-7.0-86.0,NA,resource/audio/crocodile_US.mp3,null,NA,NA
data_2025-04-08-13-28-11.281654_anfdwo1sv2,null,NA,audio-button-response,94,944258,0.0-0.0-7.0-87.0,NA,resource/audio/crocodile_TR.mp3,null,NA,NA
data_2025-04-08-13-28-11.281654_anfdwo1sv2,null,NA,audio-button-response,95,947287,0.0-0.0-7.0-88.0,NA,resource/audio/crocodile_NZ.mp3,null,NA,NA
data_2025-04-08-13-28-11.281654_anfdwo1sv2,623.5999999642372,NA,audio-button-response,96,948162,0.0-0.0-7.0-89.0,NA,resource/audio/blank.mp3,1,"crocodile_TR.mp3,crocodile_NZ.mp3",NA
data_2025-04-08-13-28-11.281654_anfdwo1sv2,998.7000000476837,NA,instructions,97,949412,0.0-0.0-7.0-90.0,"[{""page_index"":0,""viewing_time"":998.6000000238419}]",NA,NA,NA,NA
data_2025-04-08-13-28-11.281654_anfdwo1sv2,null,NA,audio-button-response,98,951383,0.0-0.0-7.0-91.0,NA,resource/audio/folder_US.mp3,null,NA,NA
data_2025-04-08-13-28-11.281654_anfdwo1sv2,null,NA,audio-button-response,99,954156,0.0-0.0-7.0-92.0,NA,resource/audio/folder_NZ.mp3,null,NA,NA
data_2025-04-08-13-28-11.281654_anfdwo1sv2,null,NA,audio-button-response,100,956460,0.0-0.0-7.0-93.0,NA,resource/audio/folder_TR.mp3,null,NA,NA
data_2025-04-08-13-28-11.281654_anfdwo1sv2,785.5999999642372,NA,audio-button-response,101,957498,0.0-0.0-7.0-94.0,NA,resource/audio/blank.mp3,1,"folder_NZ.mp3,folder_TR.mp3",NA
data_2025-04-08-13-28-11.281654_anfdwo1sv2,1048.300000011921,NA,instructions,102,958798,0.0-0.0-7.0-95.0,"[{""page_index"":0,""viewing_time"":1048.199999988079}]",NA,NA,NA,NA
data_2025-04-08-13-28-11.281654_anfdwo1sv2,null,NA,audio-button-response,103,960300,0.0-0.0-7.0-96.0,NA,resource/audio/walrus_US.mp3,null,NA,NA
data_2025-04-08-13-28-11.281654_anfdwo1sv2,null,NA,audio-button-response,104,962924,0.0-0.0-7.0-97.0,NA,resource/audio/walrus_NZ.mp3,null,NA,NA
data_2025-04-08-13-28-11.281654_anfdwo1sv2,null,NA,audio-button-response,105,964289,0.0-0.0-7.0-98.0,NA,resource/audio/walrus_TR.mp3,null,NA,NA
data_2025-04-08-13-28-11.281654_anfdwo1sv2,1242.2999999523163,NA,audio-button-response,106,965783,0.0-0.0-7.0-99.0,NA,resource/audio/blank.mp3,1,"walrus_NZ.mp3,walrus_TR.mp3",NA
data_2025-04-08-13-28-11.281654_anfdwo1sv2,965.7000000476837,NA,instructions,107,967001,0.0-0.0-7.0-100.0,"[{""page_index"":0,""viewing_time"":965.6000000238419}]",NA,NA,NA,NA
data_2025-04-08-13-28-11.281654_anfdwo1sv2,null,NA,audio-button-response,108,968151,0.0-0.0-7.0-101.0,NA,resource/audio/plaster_US.mp3,null,NA,NA
data_2025-04-08-13-28-11.281654_anfdwo1sv2,null,NA,audio-button-response,109,972908,0.0-0.0-7.0-102.0,NA,resource/audio/plaster_NZ.mp3,null,NA,NA
data_2025-04-08-13-28-11.281654_anfdwo1sv2,null,NA,audio-button-response,110,974806,0.0-0.0-7.0-103.0,NA,resource/audio/plaster_TR.mp3,null,NA,NA
data_2025-04-08-13-28-11.281654_anfdwo1sv2,577.8000000119209,NA,audio-button-response,111,975636,0.0-0.0-7.0-104.0,NA,resource/audio/blank.mp3,0,"plaster_NZ.mp3,plaster_TR.mp3",NA
data_2025-04-08-13-28-11.281654_anfdwo1sv2,833.3999999761581,NA,instructions,112,976720,0.0-0.0-7.0-105.0,"[{""page_index"":0,""viewing_time"":833.3999999761581}]",NA,NA,NA,NA
data_2025-04-08-13-28-11.281654_anfdwo1sv2,null,NA,audio-button-response,113,977900,0.0-0.0-7.0-106.0,NA,resource/audio/pizza_US.mp3,null,NA,NA
data_2025-04-08-13-28-11.281654_anfdwo1sv2,null,NA,audio-button-response,114,980545,0.0-0.0-7.0-107.0,NA,resource/audio/pizza_NZ.mp3,null,NA,NA
data_2025-04-08-13-28-11.281654_anfdwo1sv2,null,NA,audio-button-response,115,983254,0.0-0.0-7.0-108.0,NA,resource/audio/pizza_TR.mp3,null,NA,NA
data_2025-04-08-13-28-11.281654_anfdwo1sv2,648.8999999761581,NA,audio-button-response,116,984155,0.0-0.0-7.0-109.0,NA,resource/audio/blank.mp3,0,"pizza_NZ.mp3,pizza_TR.mp3",NA
data_2025-04-08-13-28-11.281654_anfdwo1sv2,632.8999999761581,NA,instructions,117,985039,0.0-0.0-7.0-110.0,"[{""page_index"":0,""viewing_time"":632.8999999761581}]",NA,NA,NA,NA
data_2025-04-08-13-28-11.281654_anfdwo1sv2,null,NA,audio-button-response,118,986561,0.0-0.0-7.0-111.0,NA,resource/audio/grandmother_US.mp3,null,NA,NA
data_2025-04-08-13-28-11.281654_anfdwo1sv2,null,NA,audio-button-response,119,989185,0.0-0.0-7.0-112.0,NA,resource/audio/grandmother_NZ.mp3,null,NA,NA
data_2025-04-08-13-28-11.281654_anfdwo1sv2,null,NA,audio-button-response,120,990721,0.0-0.0-7.0-113.0,NA,resource/audio/grandmother_TR.mp3,null,NA,NA
data_2025-04-08-13-28-11.281654_anfdwo1sv2,401.2000000476837,NA,audio-button-response,121,991374,0.0-0.0-7.0-114.0,NA,resource/audio/blank.mp3,0,"grandmother_NZ.mp3,grandmother_TR.mp3",NA
data_2025-04-08-13-28-11.281654_anfdwo1sv2,733.1999999880791,NA,instructions,122,992358,0.0-0.0-7.0-115.0,"[{""page_index"":0,""viewing_time"":733.1999999880791}]",NA,NA,NA,NA
data_2025-04-08-13-28-11.281654_anfdwo1sv2,null,NA,audio-button-response,123,994838,0.0-0.0-7.0-116.0,NA,resource/audio/basket_US.mp3,null,NA,NA
data_2025-04-08-13-28-11.281654_anfdwo1sv2,null,NA,audio-button-response,124,997377,0.0-0.0-7.0-117.0,NA,resource/audio/basket_TR.mp3,null,NA,NA
data_2025-04-08-13-28-11.281654_anfdwo1sv2,null,NA,audio-button-response,125,1000683,0.0-0.0-7.0-118.0,NA,resource/audio/basket_NZ.mp3,null,NA,NA
data_2025-04-08-13-28-11.281654_anfdwo1sv2,992,NA,audio-button-response,126,1001928,0.0-0.0-7.0-119.0,NA,resource/audio/blank.mp3,1,"basket_TR.mp3,basket_NZ.mp3",NA
data_2025-04-08-13-28-11.281654_anfdwo1sv2,832.1999999880791,NA,instructions,127,1003011,0.0-0.0-7.0-120.0,"[{""page_index"":0,""viewing_time"":832}]",NA,NA,NA,NA
data_2025-04-08-13-28-11.281654_anfdwo1sv2,null,NA,audio-button-response,128,1004459,0.0-0.0-7.0-121.0,NA,resource/audio/flower_US.mp3,null,NA,NA
data_2025-04-08-13-28-11.281654_anfdwo1sv2,null,NA,audio-button-response,129,1007851,0.0-0.0-7.0-122.0,NA,resource/audio/flower_NZ.mp3,null,NA,NA
data_2025-04-08-13-28-11.281654_anfdwo1sv2,null,NA,audio-button-response,130,1010112,0.0-0.0-7.0-123.0,NA,resource/audio/flower_TR.mp3,null,NA,NA
data_2025-04-08-13-28-11.281654_anfdwo1sv2,431.5,NA,audio-button-response,131,1010797,0.0-0.0-7.0-124.0,NA,resource/audio/blank.mp3,0,"flower_NZ.mp3,flower_TR.mp3",NA
data_2025-04-08-13-28-11.281654_anfdwo1sv2,867,NA,instructions,132,1011914,0.0-0.0-7.0-125.0,"[{""page_index"":0,""viewing_time"":866.6999999880791}]",NA,NA,NA,NA
data_2025-04-08-13-28-11.281654_anfdwo1sv2,null,NA,audio-button-response,133,1014379,0.0-0.0-7.0-126.0,NA,resource/audio/fragrance_US.mp3,null,NA,NA
data_2025-04-08-13-28-11.281654_anfdwo1sv2,null,NA,audio-button-response,134,1016790,0.0-0.0-7.0-127.0,NA,resource/audio/fragrance_TR.mp3,null,NA,NA
data_2025-04-08-13-28-11.281654_anfdwo1sv2,null,NA,audio-button-response,135,1020459,0.0-0.0-7.0-128.0,NA,resource/audio/fragrance_NZ.mp3,null,NA,NA
data_2025-04-08-13-28-11.281654_anfdwo1sv2,1356.5,NA,audio-button-response,136,1022067,0.0-0.0-7.0-129.0,NA,resource/audio/blank.mp3,1,"fragrance_TR.mp3,fragrance_NZ.mp3",NA
data_2025-04-08-13-28-11.281654_anfdwo1sv2,532.5999999642372,NA,instructions,137,1022851,0.0-0.0-7.0-130.0,"[{""page_index"":0,""viewing_time"":532.5}]",NA,NA,NA,NA
data_2025-04-08-13-28-11.281654_anfdwo1sv2,null,NA,audio-button-response,138,1024192,0.0-0.0-7.0-131.0,NA,resource/audio/parasite_US.mp3,null,NA,NA
data_2025-04-08-13-28-11.281654_anfdwo1sv2,null,NA,audio-button-response,139,1027563,0.0-0.0-7.0-132.0,NA,resource/audio/parasite_NZ.mp3,null,NA,NA
data_2025-04-08-13-28-11.281654_anfdwo1sv2,null,NA,audio-button-response,140,1028971,0.0-0.0-7.0-133.0,NA,resource/audio/parasite_TR.mp3,null,NA,NA
data_2025-04-08-13-28-11.281654_anfdwo1sv2,680.4000000357628,NA,audio-button-response,141,1029902,0.0-0.0-7.0-134.0,NA,resource/audio/blank.mp3,0,"parasite_NZ.mp3,parasite_TR.mp3",NA
data_2025-04-08-13-28-11.281654_anfdwo1sv2,816,NA,instructions,142,1030969,0.0-0.0-7.0-135.0,"[{""page_index"":0,""viewing_time"":815.8999999761581}]",NA,NA,NA,NA
data_2025-04-08-13-28-11.281654_anfdwo1sv2,null,NA,audio-button-response,143,1033088,0.0-0.0-7.0-136.0,NA,resource/audio/elephant_US.mp3,null,NA,NA
data_2025-04-08-13-28-11.281654_anfdwo1sv2,null,NA,audio-button-response,144,1035328,0.0-0.0-7.0-137.0,NA,resource/audio/elephant_TR.mp3,null,NA,NA
data_2025-04-08-13-28-11.281654_anfdwo1sv2,null,NA,audio-button-response,145,1038379,0.0-0.0-7.0-138.0,NA,resource/audio/elephant_NZ.mp3,null,NA,NA
data_2025-04-08-13-28-11.281654_anfdwo1sv2,1625,NA,audio-button-response,146,1040255,0.0-0.0-7.0-139.0,NA,resource/audio/blank.mp3,0,"elephant_TR.mp3,elephant_NZ.mp3",NA
data_2025-04-08-13-28-11.281654_anfdwo1sv2,699,NA,instructions,147,1041205,0.0-0.0-7.0-140.0,"[{""page_index"":0,""viewing_time"":698.8999999761581}]",NA,NA,NA,NA
data_2025-04-08-13-28-11.281654_anfdwo1sv2,null,NA,audio-button-response,148,1043051,0.0-0.0-7.0-141.0,NA,resource/audio/email_US.mp3,null,NA,NA
data_2025-04-08-13-28-11.281654_anfdwo1sv2,null,NA,audio-button-response,149,1046379,0.0-0.0-7.0-142.0,NA,resource/audio/email_NZ.mp3,null,NA,NA
data_2025-04-08-13-28-11.281654_anfdwo1sv2,null,NA,audio-button-response,150,1048661,0.0-0.0-7.0-143.0,NA,resource/audio/email_TR.mp3,null,NA,NA
data_2025-04-08-13-28-11.281654_anfdwo1sv2,644.9000000357628,NA,audio-button-response,151,1049558,0.0-0.0-7.0-144.0,NA,resource/audio/blank.mp3,0,"email_NZ.mp3,email_TR.mp3",NA
data_2025-04-08-13-28-11.281654_anfdwo1sv2,516.1000000238419,NA,instructions,152,1050325,0.0-0.0-7.0-145.0,"[{""page_index"":0,""viewing_time"":516}]",NA,NA,NA,NA
data_2025-04-08-13-28-11.281654_anfdwo1sv2,null,NA,audio-button-response,153,1051691,0.0-0.0-7.0-146.0,NA,resource/audio/eggnog_US.mp3,null,NA,NA
data_2025-04-08-13-28-11.281654_anfdwo1sv2,null,NA,audio-button-response,154,1054101,0.0-0.0-7.0-147.0,NA,resource/audio/eggnog_TR.mp3,null,NA,NA
data_2025-04-08-13-28-11.281654_anfdwo1sv2,null,NA,audio-button-response,155,1057472,0.0-0.0-7.0-148.0,NA,resource/audio/eggnog_NZ.mp3,null,NA,NA
data_2025-04-08-13-28-11.281654_anfdwo1sv2,670.5,NA,audio-button-response,156,1058395,0.0-0.0-7.0-149.0,NA,resource/audio/blank.mp3,0,"eggnog_TR.mp3,eggnog_NZ.mp3",NA
data_2025-04-08-13-28-11.281654_anfdwo1sv2,173192.60000002384,NA,html-keyboard-response,157,1231848,0.0-0.0-8.0,NA,"<p>Thank you for your participation, your responses have been recorded!</p>
  <p>To receive full credit, please complete the following demographic form. Click <a target=""_blank"" rel=""noopener noreferrer"" href=""https://utexas.qualtrics.com/jfe/form/SV_es5YLeHNdLkWZ4W"">here</a> to proceed.</p>",NA,NA,32
