file_id,rt,responses,trial_type,trial_index,time_elapsed,internal_node_id,view_history,stimulus,button_pressed,speakers,key_press
data_2025-04-10-15-46-15.921898_882rco17ll,4059.899999976158,"{""Participant ID"":""019""}",survey-text,0,4071,0.0-0.0-0.0-0.0,NA,NA,NA,NA,NA
data_2025-04-10-15-46-15.921898_882rco17ll,1983563.7999999523,NA,instructions,1,1987638,0.0-0.0-1.0,"[{""page_index"":0,""viewing_time"":1983563.6000000238}]",NA,NA,NA,NA
data_2025-04-10-15-46-15.921898_882rco17ll,16571.100000023842,NA,instructions,2,2004460,0.0-0.0-2.0,"[{""page_index"":0,""viewing_time"":16571}]",NA,NA,NA,NA
data_2025-04-10-15-46-15.921898_882rco17ll,7016.399999976158,NA,instructions,3,2011729,0.0-0.0-3.0,"[{""page_index"":0,""viewing_time"":7016.200000047684}]",NA,NA,NA,NA
data_2025-04-10-15-46-15.921898_882rco17ll,1031.6999999284744,NA,instructions,4,2013012,0.0-0.0-4.0,"[{""page_index"":0,""viewing_time"":1031.6000000238419}]",NA,NA,NA,NA
data_2025-04-10-15-46-15.921898_882rco17ll,6651,NA,instructions,5,2019915,0.0-0.0-5.0,"[{""page_index"":0,""viewing_time"":6651}]",NA,NA,NA,NA
data_2025-04-10-15-46-15.921898_882rco17ll,2749.1999999284744,NA,instructions,6,2022915,0.0-0.0-6.0,"[{""page_index"":0,""viewing_time"":2749}]",NA,NA,NA,NA
data_2025-04-10-15-46-15.921898_882rco17ll,1799.2000000476837,NA,instructions,7,2024966,0.0-0.0-7.0-0.0,"[{""page_index"":0,""viewing_time"":1799}]",NA,NA,NA,NA
data_2025-04-10-15-46-15.921898_882rco17ll,null,NA,audio-button-response,8,2026772,0.0-0.0-7.0-1.0,NA,resource/audio/snake_US.mp3,null,NA,NA
data_2025-04-10-15-46-15.921898_882rco17ll,null,NA,audio-button-response,9,2027966,0.0-0.0-7.0-2.0,NA,resource/audio/snake_TR.mp3,null,NA,NA
data_2025-04-10-15-46-15.921898_882rco17ll,null,NA,audio-button-response,10,2031508,0.0-0.0-7.0-3.0,NA,resource/audio/snake_NZ.mp3,null,NA,NA
data_2025-04-10-15-46-15.921898_882rco17ll,2026,NA,audio-button-response,11,2033785,0.0-0.0-7.0-4.0,NA,resource/audio/blank.mp3,0,"snake_TR.mp3,snake_NZ.mp3",NA
data_2025-04-10-15-46-15.921898_882rco17ll,1565.5,NA,instructions,12,2035603,0.0-0.0-7.0-5.0,"[{""page_index"":0,""viewing_time"":1565.3999999761581}]",NA,NA,NA,NA
data_2025-04-10-15-46-15.921898_882rco17ll,null,NA,audio-button-response,13,2037246,0.0-0.0-7.0-6.0,NA,resource/audio/woodpecker_US.mp3,null,NA,NA
data_2025-04-10-15-46-15.921898_882rco17ll,null,NA,audio-button-response,14,2038569,0.0-0.0-7.0-7.0,NA,resource/audio/woodpecker_TR.mp3,null,NA,NA
data_2025-04-10-15-46-15.921898_882rco17ll,null,NA,audio-button-response,15,2041705,0.0-0.0-7.0-8.0,NA,resource/audio/woodpecker_NZ.mp3,null,NA,NA
data_2025-04-10-15-46-15.921898_882rco17ll,1547.7000000476837,NA,audio-button-response,16,2043505,0.0-0.0-7.0-9.0,NA,resource/audio/blank.mp3,1,"woodpecker_TR.mp3,woodpecker_NZ.mp3",NA
data_2025-04-10-15-46-15.921898_882rco17ll,1450.3999999761581,NA,instructions,17,2045206,0.0-0.0-7.0-10.0,"[{""page_index"":0,""viewing_time"":1450.2999999523163}]",NA,NA,NA,NA
data_2025-04-10-15-46-15.921898_882rco17ll,null,NA,audio-button-response,18,2046569,0.0-0.0-7.0-11.0,NA,resource/audio/corral_US.mp3,null,NA,NA
data_2025-04-10-15-46-15.921898_882rco17ll,null,NA,audio-button-response,19,2047699,0.0-0.0-7.0-12.0,NA,resource/audio/corral_TR.mp3,null,NA,NA
data_2025-04-10-15-46-15.921898_882rco17ll,null,NA,audio-button-response,20,2050772,0.0-0.0-7.0-13.0,NA,resource/audio/corral_NZ.mp3,null,NA,NA
data_2025-04-10-15-46-15.921898_882rco17ll,1050.6000000238419,NA,audio-button-response,21,2052075,0.0-0.0-7.0-14.0,NA,resource/audio/blank.mp3,1,"corral_TR.mp3,corral_NZ.mp3",NA
data_2025-04-10-15-46-15.921898_882rco17ll,1114.6000000238419,NA,instructions,22,2053441,0.0-0.0-7.0-15.0,"[{""page_index"":0,""viewing_time"":1114.5}]",NA,NA,NA,NA
data_2025-04-10-15-46-15.921898_882rco17ll,null,NA,audio-button-response,23,2055763,0.0-0.0-7.0-16.0,NA,resource/audio/rabbit_US.mp3,null,NA,NA
data_2025-04-10-15-46-15.921898_882rco17ll,null,NA,audio-button-response,24,2059753,0.0-0.0-7.0-17.0,NA,resource/audio/rabbit_NZ.mp3,null,NA,NA
data_2025-04-10-15-46-15.921898_882rco17ll,null,NA,audio-button-response,25,2061993,0.0-0.0-7.0-18.0,NA,resource/audio/rabbit_TR.mp3,null,NA,NA
data_2025-04-10-15-46-15.921898_882rco17ll,849.1999999284744,NA,audio-button-response,26,2063094,0.0-0.0-7.0-19.0,NA,resource/audio/blank.mp3,1,"rabbit_NZ.mp3,rabbit_TR.mp3",NA
data_2025-04-10-15-46-15.921898_882rco17ll,1082.7999999523163,NA,instructions,27,2064429,0.0-0.0-7.0-20.0,"[{""page_index"":0,""viewing_time"":1082.6999999284744}]",NA,NA,NA,NA
data_2025-04-10-15-46-15.921898_882rco17ll,null,NA,audio-button-response,28,2066920,0.0-0.0-7.0-21.0,NA,resource/audio/basket_US.mp3,null,NA,NA
data_2025-04-10-15-46-15.921898_882rco17ll,null,NA,audio-button-response,29,2070227,0.0-0.0-7.0-22.0,NA,resource/audio/basket_NZ.mp3,null,NA,NA
data_2025-04-10-15-46-15.921898_882rco17ll,null,NA,audio-button-response,30,2072766,0.0-0.0-7.0-23.0,NA,resource/audio/basket_TR.mp3,null,NA,NA
data_2025-04-10-15-46-15.921898_882rco17ll,2130.399999976158,NA,audio-button-response,31,2075149,0.0-0.0-7.0-24.0,NA,resource/audio/blank.mp3,1,"basket_NZ.mp3,basket_TR.mp3",NA
data_2025-04-10-15-46-15.921898_882rco17ll,1266.3999999761581,NA,instructions,32,2076666,0.0-0.0-7.0-25.0,"[{""page_index"":0,""viewing_time"":1266.2999999523163}]",NA,NA,NA,NA
data_2025-04-10-15-46-15.921898_882rco17ll,null,NA,audio-button-response,33,2078633,0.0-0.0-7.0-26.0,NA,resource/audio/wallet_US.mp3,null,NA,NA
data_2025-04-10-15-46-15.921898_882rco17ll,null,NA,audio-button-response,34,2080638,0.0-0.0-7.0-27.0,NA,resource/audio/wallet_TR.mp3,null,NA,NA
data_2025-04-10-15-46-15.921898_882rco17ll,null,NA,audio-button-response,35,2084030,0.0-0.0-7.0-28.0,NA,resource/audio/wallet_NZ.mp3,null,NA,NA
data_2025-04-10-15-46-15.921898_882rco17ll,1304.2000000476837,NA,audio-button-response,36,2085585,0.0-0.0-7.0-29.0,NA,resource/audio/blank.mp3,1,"wallet_TR.mp3,wallet_NZ.mp3",NA
data_2025-04-10-15-46-15.921898_882rco17ll,2032.3999999761581,NA,instructions,37,2087869,0.0-0.0-7.0-30.0,"[{""page_index"":0,""viewing_time"":2032.3000000715256}]",NA,NA,NA,NA
data_2025-04-10-15-46-15.921898_882rco17ll,null,NA,audio-button-response,38,2089384,0.0-0.0-7.0-31.0,NA,resource/audio/goldfish_US.mp3,null,NA,NA
data_2025-04-10-15-46-15.921898_882rco17ll,null,NA,audio-button-response,39,2093288,0.0-0.0-7.0-32.0,NA,resource/audio/goldfish_NZ.mp3,null,NA,NA
data_2025-04-10-15-46-15.921898_882rco17ll,null,NA,audio-button-response,40,2094803,0.0-0.0-7.0-33.0,NA,resource/audio/goldfish_TR.mp3,null,NA,NA
data_2025-04-10-15-46-15.921898_882rco17ll,799.7000000476837,NA,audio-button-response,41,2095855,0.0-0.0-7.0-34.0,NA,resource/audio/blank.mp3,1,"goldfish_NZ.mp3,goldfish_TR.mp3",NA
data_2025-04-10-15-46-15.921898_882rco17ll,1132,NA,instructions,42,2097239,0.0-0.0-7.0-35.0,"[{""page_index"":0,""viewing_time"":1132}]",NA,NA,NA,NA
data_2025-04-10-15-46-15.921898_882rco17ll,null,NA,audio-button-response,43,2099710,0.0-0.0-7.0-36.0,NA,resource/audio/eyeliner_US.mp3,null,NA,NA
data_2025-04-10-15-46-15.921898_882rco17ll,null,NA,audio-button-response,44,2103635,0.0-0.0-7.0-37.0,NA,resource/audio/eyeliner_NZ.mp3,null,NA,NA
data_2025-04-10-15-46-15.921898_882rco17ll,null,NA,audio-button-response,45,2105491,0.0-0.0-7.0-38.0,NA,resource/audio/eyeliner_TR.mp3,null,NA,NA
data_2025-04-10-15-46-15.921898_882rco17ll,1381.1999999284744,NA,audio-button-response,46,2107125,0.0-0.0-7.0-39.0,NA,resource/audio/blank.mp3,0,"eyeliner_NZ.mp3,eyeliner_TR.mp3",NA
data_2025-04-10-15-46-15.921898_882rco17ll,1114.6999999284744,NA,instructions,47,2108492,0.0-0.0-7.0-40.0,"[{""page_index"":0,""viewing_time"":1114.5}]",NA,NA,NA,NA
data_2025-04-10-15-46-15.921898_882rco17ll,null,NA,audio-button-response,48,2109630,0.0-0.0-7.0-41.0,NA,resource/audio/plaster_US.mp3,null,NA,NA
data_2025-04-10-15-46-15.921898_882rco17ll,null,NA,audio-button-response,49,2111528,0.0-0.0-7.0-42.0,NA,resource/audio/plaster_TR.mp3,null,NA,NA
data_2025-04-10-15-46-15.921898_882rco17ll,null,NA,audio-button-response,50,2116286,0.0-0.0-7.0-43.0,NA,resource/audio/plaster_NZ.mp3,null,NA,NA
data_2025-04-10-15-46-15.921898_882rco17ll,823.7999999523163,NA,audio-button-response,51,2117361,0.0-0.0-7.0-44.0,NA,resource/audio/blank.mp3,1,"plaster_TR.mp3,plaster_NZ.mp3",NA
data_2025-04-10-15-46-15.921898_882rco17ll,1750.2999999523163,NA,instructions,52,2119363,0.0-0.0-7.0-45.0,"[{""page_index"":0,""viewing_time"":1750.0999999046326}]",NA,NA,NA,NA
data_2025-04-10-15-46-15.921898_882rco17ll,null,NA,audio-button-response,53,2121491,0.0-0.0-7.0-46.0,NA,resource/audio/jewellery_US.mp3,null,NA,NA
data_2025-04-10-15-46-15.921898_882rco17ll,null,NA,audio-button-response,54,2124072,0.0-0.0-7.0-47.0,NA,resource/audio/jewellery_NZ.mp3,null,NA,NA
data_2025-04-10-15-46-15.921898_882rco17ll,null,NA,audio-button-response,55,2125971,0.0-0.0-7.0-48.0,NA,resource/audio/jewellery_TR.mp3,null,NA,NA
data_2025-04-10-15-46-15.921898_882rco17ll,907.8000000715256,NA,audio-button-response,56,2127131,0.0-0.0-7.0-49.0,NA,resource/audio/blank.mp3,0,"jewellery_NZ.mp3,jewellery_TR.mp3",NA
data_2025-04-10-15-46-15.921898_882rco17ll,1249.5,NA,instructions,57,2128632,0.0-0.0-7.0-50.0,"[{""page_index"":0,""viewing_time"":1249.2999999523163}]",NA,NA,NA,NA
data_2025-04-10-15-46-15.921898_882rco17ll,null,NA,audio-button-response,58,2129917,0.0-0.0-7.0-51.0,NA,resource/audio/giraffe_US.mp3,null,NA,NA
data_2025-04-10-15-46-15.921898_882rco17ll,null,NA,audio-button-response,59,2133139,0.0-0.0-7.0-52.0,NA,resource/audio/giraffe_NZ.mp3,null,NA,NA
data_2025-04-10-15-46-15.921898_882rco17ll,null,NA,audio-button-response,60,2134440,0.0-0.0-7.0-53.0,NA,resource/audio/giraffe_TR.mp3,null,NA,NA
data_2025-04-10-15-46-15.921898_882rco17ll,1041.4000000953674,NA,audio-button-response,61,2135734,0.0-0.0-7.0-54.0,NA,resource/audio/blank.mp3,1,"giraffe_NZ.mp3,giraffe_TR.mp3",NA
data_2025-04-10-15-46-15.921898_882rco17ll,749.0999999046326,NA,instructions,62,2136735,0.0-0.0-7.0-55.0,"[{""page_index"":0,""viewing_time"":748.8999999761581}]",NA,NA,NA,NA
data_2025-04-10-15-46-15.921898_882rco17ll,null,NA,audio-button-response,63,2138579,0.0-0.0-7.0-56.0,NA,resource/audio/sauerkraut_US.mp3,null,NA,NA
data_2025-04-10-15-46-15.921898_882rco17ll,null,NA,audio-button-response,64,2140712,0.0-0.0-7.0-57.0,NA,resource/audio/sauerkraut_TR.mp3,null,NA,NA
data_2025-04-10-15-46-15.921898_882rco17ll,null,NA,audio-button-response,65,2144126,0.0-0.0-7.0-58.0,NA,resource/audio/sauerkraut_NZ.mp3,null,NA,NA
data_2025-04-10-15-46-15.921898_882rco17ll,1043,NA,audio-button-response,66,2145421,0.0-0.0-7.0-59.0,NA,resource/audio/blank.mp3,0,"sauerkraut_TR.mp3,sauerkraut_NZ.mp3",NA
data_2025-04-10-15-46-15.921898_882rco17ll,766.8999999761581,NA,instructions,67,2146438,0.0-0.0-7.0-60.0,"[{""page_index"":0,""viewing_time"":766.6999999284744}]",NA,NA,NA,NA
data_2025-04-10-15-46-15.921898_882rco17ll,null,NA,audio-button-response,68,2148392,0.0-0.0-7.0-61.0,NA,resource/audio/folder_US.mp3,null,NA,NA
data_2025-04-10-15-46-15.921898_882rco17ll,null,NA,audio-button-response,69,2150696,0.0-0.0-7.0-62.0,NA,resource/audio/folder_TR.mp3,null,NA,NA
data_2025-04-10-15-46-15.921898_882rco17ll,null,NA,audio-button-response,70,2153470,0.0-0.0-7.0-63.0,NA,resource/audio/folder_NZ.mp3,null,NA,NA
data_2025-04-10-15-46-15.921898_882rco17ll,718.3000000715256,NA,audio-button-response,71,2154440,0.0-0.0-7.0-64.0,NA,resource/audio/blank.mp3,0,"folder_TR.mp3,folder_NZ.mp3",NA
data_2025-04-10-15-46-15.921898_882rco17ll,948.7000000476837,NA,instructions,72,2155640,0.0-0.0-7.0-65.0,"[{""page_index"":0,""viewing_time"":948.6000000238419}]",NA,NA,NA,NA
data_2025-04-10-15-46-15.921898_882rco17ll,null,NA,audio-button-response,73,2157117,0.0-0.0-7.0-66.0,NA,resource/audio/telegraph_US.mp3,null,NA,NA
data_2025-04-10-15-46-15.921898_882rco17ll,null,NA,audio-button-response,74,2160381,0.0-0.0-7.0-67.0,NA,resource/audio/telegraph_NZ.mp3,null,NA,NA
data_2025-04-10-15-46-15.921898_882rco17ll,null,NA,audio-button-response,75,2162941,0.0-0.0-7.0-68.0,NA,resource/audio/telegraph_TR.mp3,null,NA,NA
data_2025-04-10-15-46-15.921898_882rco17ll,1816.2000000476837,NA,audio-button-response,76,2165010,0.0-0.0-7.0-69.0,NA,resource/audio/blank.mp3,0,"telegraph_NZ.mp3,telegraph_TR.mp3",NA
data_2025-04-10-15-46-15.921898_882rco17ll,983,NA,instructions,77,2166244,0.0-0.0-7.0-70.0,"[{""page_index"":0,""viewing_time"":982.8999999761581}]",NA,NA,NA,NA
data_2025-04-10-15-46-15.921898_882rco17ll,null,NA,audio-button-response,78,2168616,0.0-0.0-7.0-71.0,NA,resource/audio/airstrip_US.mp3,null,NA,NA
data_2025-04-10-15-46-15.921898_882rco17ll,null,NA,audio-button-response,79,2170579,0.0-0.0-7.0-72.0,NA,resource/audio/airstrip_TR.mp3,null,NA,NA
data_2025-04-10-15-46-15.921898_882rco17ll,null,NA,audio-button-response,80,2173416,0.0-0.0-7.0-73.0,NA,resource/audio/airstrip_NZ.mp3,null,NA,NA
data_2025-04-10-15-46-15.921898_882rco17ll,995.1000000238419,NA,audio-button-response,81,2174663,0.0-0.0-7.0-74.0,NA,resource/audio/blank.mp3,1,"airstrip_TR.mp3,airstrip_NZ.mp3",NA
data_2025-04-10-15-46-15.921898_882rco17ll,865.6000000238419,NA,instructions,82,2175780,0.0-0.0-7.0-75.0,"[{""page_index"":0,""viewing_time"":865.5}]",NA,NA,NA,NA
data_2025-04-10-15-46-15.921898_882rco17ll,null,NA,audio-button-response,83,2177085,0.0-0.0-7.0-76.0,NA,resource/audio/cuckoo_US.mp3,null,NA,NA
data_2025-04-10-15-46-15.921898_882rco17ll,null,NA,audio-button-response,84,2178408,0.0-0.0-7.0-77.0,NA,resource/audio/cuckoo_TR.mp3,null,NA,NA
data_2025-04-10-15-46-15.921898_882rco17ll,null,NA,audio-button-response,85,2181949,0.0-0.0-7.0-78.0,NA,resource/audio/cuckoo_NZ.mp3,null,NA,NA
data_2025-04-10-15-46-15.921898_882rco17ll,596.8000000715256,NA,audio-button-response,86,2182798,0.0-0.0-7.0-79.0,NA,resource/audio/blank.mp3,1,"cuckoo_TR.mp3,cuckoo_NZ.mp3",NA
data_2025-04-10-15-46-15.921898_882rco17ll,1300.7000000476837,NA,instructions,87,2184350,0.0-0.0-7.0-80.0,"[{""page_index"":0,""viewing_time"":1300.3999999761581}]",NA,NA,NA,NA
data_2025-04-10-15-46-15.921898_882rco17ll,null,NA,audio-button-response,88,2186109,0.0-0.0-7.0-81.0,NA,resource/audio/fiber_US.mp3,null,NA,NA
data_2025-04-10-15-46-15.921898_882rco17ll,null,NA,audio-button-response,89,2188968,0.0-0.0-7.0-82.0,NA,resource/audio/fiber_NZ.mp3,null,NA,NA
data_2025-04-10-15-46-15.921898_882rco17ll,null,NA,audio-button-response,90,2191059,0.0-0.0-7.0-83.0,NA,resource/audio/fiber_TR.mp3,null,NA,NA
data_2025-04-10-15-46-15.921898_882rco17ll,541.2000000476837,NA,audio-button-response,91,2191851,0.0-0.0-7.0-84.0,NA,resource/audio/blank.mp3,1,"fiber_NZ.mp3,fiber_TR.mp3",NA
data_2025-04-10-15-46-15.921898_882rco17ll,998.7999999523163,NA,instructions,92,2193101,0.0-0.0-7.0-85.0,"[{""page_index"":0,""viewing_time"":998.6999999284744}]",NA,NA,NA,NA
data_2025-04-10-15-46-15.921898_882rco17ll,null,NA,audio-button-response,93,2194706,0.0-0.0-7.0-86.0,NA,resource/audio/catfish_US.mp3,null,NA,NA
data_2025-04-10-15-46-15.921898_882rco17ll,null,NA,audio-button-response,94,2196178,0.0-0.0-7.0-87.0,NA,resource/audio/catfish_TR.mp3,null,NA,NA
data_2025-04-10-15-46-15.921898_882rco17ll,null,NA,audio-button-response,95,2199315,0.0-0.0-7.0-88.0,NA,resource/audio/catfish_NZ.mp3,null,NA,NA
data_2025-04-10-15-46-15.921898_882rco17ll,821.3999999761581,NA,audio-button-response,96,2200388,0.0-0.0-7.0-89.0,NA,resource/audio/blank.mp3,0,"catfish_TR.mp3,catfish_NZ.mp3",NA
data_2025-04-10-15-46-15.921898_882rco17ll,832.5,NA,instructions,97,2201471,0.0-0.0-7.0-90.0,"[{""page_index"":0,""viewing_time"":832.3999999761581}]",NA,NA,NA,NA
data_2025-04-10-15-46-15.921898_882rco17ll,null,NA,audio-button-response,98,2202834,0.0-0.0-7.0-91.0,NA,resource/audio/predator_US.mp3,null,NA,NA
data_2025-04-10-15-46-15.921898_882rco17ll,null,NA,audio-button-response,99,2205864,0.0-0.0-7.0-92.0,NA,resource/audio/predator_NZ.mp3,null,NA,NA
data_2025-04-10-15-46-15.921898_882rco17ll,null,NA,audio-button-response,100,2207144,0.0-0.0-7.0-93.0,NA,resource/audio/predator_TR.mp3,null,NA,NA
data_2025-04-10-15-46-15.921898_882rco17ll,1729,NA,audio-button-response,101,2209124,0.0-0.0-7.0-94.0,NA,resource/audio/blank.mp3,1,"predator_NZ.mp3,predator_TR.mp3",NA
data_2025-04-10-15-46-15.921898_882rco17ll,966.5,NA,instructions,102,2210341,0.0-0.0-7.0-95.0,"[{""page_index"":0,""viewing_time"":966.2999999523163}]",NA,NA,NA,NA
data_2025-04-10-15-46-15.921898_882rco17ll,null,NA,audio-button-response,103,2212370,0.0-0.0-7.0-96.0,NA,resource/audio/cinnamon_US.mp3,null,NA,NA
data_2025-04-10-15-46-15.921898_882rco17ll,null,NA,audio-button-response,104,2214269,0.0-0.0-7.0-97.0,NA,resource/audio/cinnamon_TR.mp3,null,NA,NA
data_2025-04-10-15-46-15.921898_882rco17ll,null,NA,audio-button-response,105,2217363,0.0-0.0-7.0-98.0,NA,resource/audio/cinnamon_NZ.mp3,null,NA,NA
data_2025-04-10-15-46-15.921898_882rco17ll,912.1000000238419,NA,audio-button-response,106,2218526,0.0-0.0-7.0-99.0,NA,resource/audio/blank.mp3,0,"cinnamon_TR.mp3,cinnamon_NZ.mp3",NA
data_2025-04-10-15-46-15.921898_882rco17ll,732.8999999761581,NA,instructions,107,2219510,0.0-0.0-7.0-100.0,"[{""page_index"":0,""viewing_time"":732.7999999523163}]",NA,NA,NA,NA
data_2025-04-10-15-46-15.921898_882rco17ll,null,NA,audio-button-response,108,2220840,0.0-0.0-7.0-101.0,NA,resource/audio/zebra_US.mp3,null,NA,NA
data_2025-04-10-15-46-15.921898_882rco17ll,null,NA,audio-button-response,109,2222162,0.0-0.0-7.0-102.0,NA,resource/audio/zebra_TR.mp3,null,NA,NA
data_2025-04-10-15-46-15.921898_882rco17ll,null,NA,audio-button-response,110,2225256,0.0-0.0-7.0-103.0,NA,resource/audio/zebra_NZ.mp3,null,NA,NA
data_2025-04-10-15-46-15.921898_882rco17ll,1838.5,NA,audio-button-response,111,2227346,0.0-0.0-7.0-104.0,NA,resource/audio/blank.mp3,1,"zebra_TR.mp3,zebra_NZ.mp3",NA
data_2025-04-10-15-46-15.921898_882rco17ll,1383.0999999046326,NA,instructions,112,2228980,0.0-0.0-7.0-105.0,"[{""page_index"":0,""viewing_time"":1383.0999999046326}]",NA,NA,NA,NA
data_2025-04-10-15-46-15.921898_882rco17ll,null,NA,audio-button-response,113,2230802,0.0-0.0-7.0-106.0,NA,resource/audio/email_US.mp3,null,NA,NA
data_2025-04-10-15-46-15.921898_882rco17ll,null,NA,audio-button-response,114,2233085,0.0-0.0-7.0-107.0,NA,resource/audio/email_TR.mp3,null,NA,NA
data_2025-04-10-15-46-15.921898_882rco17ll,null,NA,audio-button-response,115,2236413,0.0-0.0-7.0-108.0,NA,resource/audio/email_NZ.mp3,null,NA,NA
data_2025-04-10-15-46-15.921898_882rco17ll,1517.6000000238419,NA,audio-button-response,116,2238182,0.0-0.0-7.0-109.0,NA,resource/audio/blank.mp3,0,"email_TR.mp3,email_NZ.mp3",NA
data_2025-04-10-15-46-15.921898_882rco17ll,1900.5,NA,instructions,117,2240334,0.0-0.0-7.0-110.0,"[{""page_index"":0,""viewing_time"":1900.4000000953674}]",NA,NA,NA,NA
data_2025-04-10-15-46-15.921898_882rco17ll,null,NA,audio-button-response,118,2242130,0.0-0.0-7.0-111.0,NA,resource/audio/washer_US.mp3,null,NA,NA
data_2025-04-10-15-46-15.921898_882rco17ll,null,NA,audio-button-response,119,2245352,0.0-0.0-7.0-112.0,NA,resource/audio/washer_NZ.mp3,null,NA,NA
data_2025-04-10-15-46-15.921898_882rco17ll,null,NA,audio-button-response,120,2247613,0.0-0.0-7.0-113.0,NA,resource/audio/washer_TR.mp3,null,NA,NA
data_2025-04-10-15-46-15.921898_882rco17ll,587.1000000238419,NA,audio-button-response,121,2248452,0.0-0.0-7.0-114.0,NA,resource/audio/blank.mp3,1,"washer_NZ.mp3,washer_TR.mp3",NA
data_2025-04-10-15-46-15.921898_882rco17ll,917.5,NA,instructions,122,2249620,0.0-0.0-7.0-115.0,"[{""page_index"":0,""viewing_time"":917.2999999523163}]",NA,NA,NA,NA
data_2025-04-10-15-46-15.921898_882rco17ll,null,NA,audio-button-response,123,2250770,0.0-0.0-7.0-116.0,NA,resource/audio/cricket_US.mp3,null,NA,NA
data_2025-04-10-15-46-15.921898_882rco17ll,null,NA,audio-button-response,124,2251922,0.0-0.0-7.0-117.0,NA,resource/audio/cricket_TR.mp3,null,NA,NA
data_2025-04-10-15-46-15.921898_882rco17ll,null,NA,audio-button-response,125,2255080,0.0-0.0-7.0-118.0,NA,resource/audio/cricket_NZ.mp3,null,NA,NA
data_2025-04-10-15-46-15.921898_882rco17ll,723,NA,audio-button-response,126,2256055,0.0-0.0-7.0-119.0,NA,resource/audio/blank.mp3,0,"cricket_TR.mp3,cricket_NZ.mp3",NA
data_2025-04-10-15-46-15.921898_882rco17ll,932.5,NA,instructions,127,2257238,0.0-0.0-7.0-120.0,"[{""page_index"":0,""viewing_time"":932.3999999761581}]",NA,NA,NA,NA
data_2025-04-10-15-46-15.921898_882rco17ll,null,NA,audio-button-response,128,2258578,0.0-0.0-7.0-121.0,NA,resource/audio/possum_US.mp3,null,NA,NA
data_2025-04-10-15-46-15.921898_882rco17ll,null,NA,audio-button-response,129,2261565,0.0-0.0-7.0-122.0,NA,resource/audio/possum_NZ.mp3,null,NA,NA
data_2025-04-10-15-46-15.921898_882rco17ll,null,NA,audio-button-response,130,2262674,0.0-0.0-7.0-123.0,NA,resource/audio/possum_TR.mp3,null,NA,NA
data_2025-04-10-15-46-15.921898_882rco17ll,1064.7999999523163,NA,audio-button-response,131,2263991,0.0-0.0-7.0-124.0,NA,resource/audio/blank.mp3,0,"possum_NZ.mp3,possum_TR.mp3",NA
data_2025-04-10-15-46-15.921898_882rco17ll,1582.3000000715256,NA,instructions,132,2265825,0.0-0.0-7.0-125.0,"[{""page_index"":0,""viewing_time"":1582.3000000715256}]",NA,NA,NA,NA
data_2025-04-10-15-46-15.921898_882rco17ll,null,NA,audio-button-response,133,2267837,0.0-0.0-7.0-126.0,NA,resource/audio/tuna_US.mp3,null,NA,NA
data_2025-04-10-15-46-15.921898_882rco17ll,null,NA,audio-button-response,134,2271293,0.0-0.0-7.0-127.0,NA,resource/audio/tuna_NZ.mp3,null,NA,NA
data_2025-04-10-15-46-15.921898_882rco17ll,null,NA,audio-button-response,135,2273789,0.0-0.0-7.0-128.0,NA,resource/audio/tuna_TR.mp3,null,NA,NA
data_2025-04-10-15-46-15.921898_882rco17ll,853.5,NA,audio-button-response,136,2274894,0.0-0.0-7.0-129.0,NA,resource/audio/blank.mp3,0,"tuna_NZ.mp3,tuna_TR.mp3",NA
data_2025-04-10-15-46-15.921898_882rco17ll,1282.1000000238419,NA,instructions,137,2276428,0.0-0.0-7.0-130.0,"[{""page_index"":0,""viewing_time"":1281.8999999761581}]",NA,NA,NA,NA
data_2025-04-10-15-46-15.921898_882rco17ll,null,NA,audio-button-response,138,2278866,0.0-0.0-7.0-131.0,NA,resource/audio/sunscreen_US.mp3,null,NA,NA
data_2025-04-10-15-46-15.921898_882rco17ll,null,NA,audio-button-response,139,2280402,0.0-0.0-7.0-132.0,NA,resource/audio/sunscreen_TR.mp3,null,NA,NA
data_2025-04-10-15-46-15.921898_882rco17ll,null,NA,audio-button-response,140,2284178,0.0-0.0-7.0-133.0,NA,resource/audio/sunscreen_NZ.mp3,null,NA,NA
data_2025-04-10-15-46-15.921898_882rco17ll,533.5,NA,audio-button-response,141,2284964,0.0-0.0-7.0-134.0,NA,resource/audio/blank.mp3,1,"sunscreen_TR.mp3,sunscreen_NZ.mp3",NA
data_2025-04-10-15-46-15.921898_882rco17ll,1115.4000000953674,NA,instructions,142,2286331,0.0-0.0-7.0-135.0,"[{""page_index"":0,""viewing_time"":1115.3000000715256}]",NA,NA,NA,NA
data_2025-04-10-15-46-15.921898_882rco17ll,null,NA,audio-button-response,143,2288423,0.0-0.0-7.0-136.0,NA,resource/audio/racquetball_US.mp3,null,NA,NA
data_2025-04-10-15-46-15.921898_882rco17ll,null,NA,audio-button-response,144,2290343,0.0-0.0-7.0-137.0,NA,resource/audio/racquetball_TR.mp3,null,NA,NA
data_2025-04-10-15-46-15.921898_882rco17ll,null,NA,audio-button-response,145,2293799,0.0-0.0-7.0-138.0,NA,resource/audio/racquetball_NZ.mp3,null,NA,NA
data_2025-04-10-15-46-15.921898_882rco17ll,615.8999999761581,NA,audio-button-response,146,2294667,0.0-0.0-7.0-139.0,NA,resource/audio/blank.mp3,1,"racquetball_TR.mp3,racquetball_NZ.mp3",NA
data_2025-04-10-15-46-15.921898_882rco17ll,1249,NA,instructions,147,2296168,0.0-0.0-7.0-140.0,"[{""page_index"":0,""viewing_time"":1248.7999999523163}]",NA,NA,NA,NA
data_2025-04-10-15-46-15.921898_882rco17ll,null,NA,audio-button-response,148,2297746,0.0-0.0-7.0-141.0,NA,resource/audio/manicure_US.mp3,null,NA,NA
data_2025-04-10-15-46-15.921898_882rco17ll,null,NA,audio-button-response,149,2299751,0.0-0.0-7.0-142.0,NA,resource/audio/manicure_TR.mp3,null,NA,NA
data_2025-04-10-15-46-15.921898_882rco17ll,null,NA,audio-button-response,150,2302461,0.0-0.0-7.0-143.0,NA,resource/audio/manicure_NZ.mp3,null,NA,NA
data_2025-04-10-15-46-15.921898_882rco17ll,2740.9000000953674,NA,audio-button-response,151,2305454,0.0-0.0-7.0-144.0,NA,resource/audio/blank.mp3,0,"manicure_TR.mp3,manicure_NZ.mp3",NA
data_2025-04-10-15-46-15.921898_882rco17ll,1848.6000000238419,NA,instructions,152,2307554,0.0-0.0-7.0-145.0,"[{""page_index"":0,""viewing_time"":1848.4000000953674}]",NA,NA,NA,NA
data_2025-04-10-15-46-15.921898_882rco17ll,null,NA,audio-button-response,153,2308925,0.0-0.0-7.0-146.0,NA,resource/audio/crocodile_US.mp3,null,NA,NA
data_2025-04-10-15-46-15.921898_882rco17ll,null,NA,audio-button-response,154,2310269,0.0-0.0-7.0-147.0,NA,resource/audio/crocodile_TR.mp3,null,NA,NA
data_2025-04-10-15-46-15.921898_882rco17ll,null,NA,audio-button-response,155,2313298,0.0-0.0-7.0-148.0,NA,resource/audio/crocodile_NZ.mp3,null,NA,NA
data_2025-04-10-15-46-15.921898_882rco17ll,956.5,NA,audio-button-response,156,2314506,0.0-0.0-7.0-149.0,NA,resource/audio/blank.mp3,1,"crocodile_TR.mp3,crocodile_NZ.mp3",NA
data_2025-04-10-15-46-15.921898_882rco17ll,361713.8000000715,NA,html-keyboard-response,157,2676469,0.0-0.0-8.0,NA,"<p>Thank you for your participation, your responses have been recorded!</p>
  <p>To receive full credit, please complete the following demographic form. Click <a target=""_blank"" rel=""noopener noreferrer"" href=""https://utexas.qualtrics.com/jfe/form/SV_es5YLeHNdLkWZ4W"">here</a> to proceed.</p>",NA,NA,32
