file_id,rt,responses,trial_type,trial_index,time_elapsed,internal_node_id,view_history,stimulus,button_pressed,speakers,key_press
data_2025-04-11-15-05-02.433489_2unck5ncuc,15195.100000023842,"{""Participant ID"":""024""}",survey-text,0,15208,0.0-0.0-0.0-0.0,NA,NA,NA,NA,NA
data_2025-04-11-15-05-02.433489_2unck5ncuc,439896.7999999523,NA,instructions,1,455098,0.0-0.0-1.0,"[{""page_index"":0,""viewing_time"":439896.60000002384}]",NA,NA,NA,NA
data_2025-04-11-15-05-02.433489_2unck5ncuc,9835.300000071526,NA,instructions,2,465184,0.0-0.0-2.0,"[{""page_index"":0,""viewing_time"":9835.200000047684}]",NA,NA,NA,NA
data_2025-04-11-15-05-02.433489_2unck5ncuc,5866.899999976158,NA,instructions,3,471302,0.0-0.0-3.0,"[{""page_index"":0,""viewing_time"":5866.700000047684}]",NA,NA,NA,NA
data_2025-04-11-15-05-02.433489_2unck5ncuc,4666.599999904633,NA,instructions,4,476221,0.0-0.0-4.0,"[{""page_index"":0,""viewing_time"":4666.299999952316}]",NA,NA,NA,NA
data_2025-04-11-15-05-02.433489_2unck5ncuc,6383.899999976158,NA,instructions,5,482856,0.0-0.0-5.0,"[{""page_index"":0,""viewing_time"":6383.799999952316}]",NA,NA,NA,NA
data_2025-04-11-15-05-02.433489_2unck5ncuc,3966.899999976158,NA,instructions,6,487074,0.0-0.0-6.0,"[{""page_index"":0,""viewing_time"":3966.8000000715256}]",NA,NA,NA,NA
data_2025-04-11-15-05-02.433489_2unck5ncuc,4716.600000023842,NA,instructions,7,492042,0.0-0.0-7.0-0.0,"[{""page_index"":0,""viewing_time"":4716.600000023842}]",NA,NA,NA,NA
data_2025-04-11-15-05-02.433489_2unck5ncuc,null,NA,audio-button-response,8,493450,0.0-0.0-7.0-1.0,NA,resource/audio/critter_US.mp3,null,NA,NA
data_2025-04-11-15-05-02.433489_2unck5ncuc,null,NA,audio-button-response,9,494687,0.0-0.0-7.0-2.0,NA,resource/audio/critter_TR.mp3,null,NA,NA
data_2025-04-11-15-05-02.433489_2unck5ncuc,null,NA,audio-button-response,10,497994,0.0-0.0-7.0-3.0,NA,resource/audio/critter_NZ.mp3,null,NA,NA
data_2025-04-11-15-05-02.433489_2unck5ncuc,2732.100000023842,NA,audio-button-response,11,500979,0.0-0.0-7.0-4.0,NA,resource/audio/blank.mp3,0,"critter_TR.mp3,critter_NZ.mp3",NA
data_2025-04-11-15-05-02.433489_2unck5ncuc,1365.7999999523163,NA,instructions,12,502595,0.0-0.0-7.0-5.0,"[{""page_index"":0,""viewing_time"":1365.5999999046326}]",NA,NA,NA,NA
data_2025-04-11-15-05-02.433489_2unck5ncuc,null,NA,audio-button-response,13,504671,0.0-0.0-7.0-6.0,NA,resource/audio/scrapbook_US.mp3,null,NA,NA
data_2025-04-11-15-05-02.433489_2unck5ncuc,null,NA,audio-button-response,14,507637,0.0-0.0-7.0-7.0,NA,resource/audio/scrapbook_NZ.mp3,null,NA,NA
data_2025-04-11-15-05-02.433489_2unck5ncuc,null,NA,audio-button-response,15,509557,0.0-0.0-7.0-8.0,NA,resource/audio/scrapbook_TR.mp3,null,NA,NA
data_2025-04-11-15-05-02.433489_2unck5ncuc,1055.7999999523163,NA,audio-button-response,16,510865,0.0-0.0-7.0-9.0,NA,resource/audio/blank.mp3,0,"scrapbook_NZ.mp3,scrapbook_TR.mp3",NA
data_2025-04-11-15-05-02.433489_2unck5ncuc,983,NA,instructions,17,512099,0.0-0.0-7.0-10.0,"[{""page_index"":0,""viewing_time"":982.9000000953674}]",NA,NA,NA,NA
data_2025-04-11-15-05-02.433489_2unck5ncuc,null,NA,audio-button-response,18,513439,0.0-0.0-7.0-11.0,NA,resource/audio/zebra_US.mp3,null,NA,NA
data_2025-04-11-15-05-02.433489_2unck5ncuc,null,NA,audio-button-response,19,514762,0.0-0.0-7.0-12.0,NA,resource/audio/zebra_TR.mp3,null,NA,NA
data_2025-04-11-15-05-02.433489_2unck5ncuc,null,NA,audio-button-response,20,517855,0.0-0.0-7.0-13.0,NA,resource/audio/zebra_NZ.mp3,null,NA,NA
data_2025-04-11-15-05-02.433489_2unck5ncuc,993.4000000953674,NA,audio-button-response,21,519101,0.0-0.0-7.0-14.0,NA,resource/audio/blank.mp3,1,"zebra_TR.mp3,zebra_NZ.mp3",NA
data_2025-04-11-15-05-02.433489_2unck5ncuc,1048.7000000476837,NA,instructions,22,520401,0.0-0.0-7.0-15.0,"[{""page_index"":0,""viewing_time"":1048.5}]",NA,NA,NA,NA
data_2025-04-11-15-05-02.433489_2unck5ncuc,null,NA,audio-button-response,23,521887,0.0-0.0-7.0-16.0,NA,resource/audio/telegraph_US.mp3,null,NA,NA
data_2025-04-11-15-05-02.433489_2unck5ncuc,null,NA,audio-button-response,24,524426,0.0-0.0-7.0-17.0,NA,resource/audio/telegraph_TR.mp3,null,NA,NA
data_2025-04-11-15-05-02.433489_2unck5ncuc,null,NA,audio-button-response,25,527690,0.0-0.0-7.0-18.0,NA,resource/audio/telegraph_NZ.mp3,null,NA,NA
data_2025-04-11-15-05-02.433489_2unck5ncuc,978.2999999523163,NA,audio-button-response,26,528921,0.0-0.0-7.0-19.0,NA,resource/audio/blank.mp3,1,"telegraph_TR.mp3,telegraph_NZ.mp3",NA
data_2025-04-11-15-05-02.433489_2unck5ncuc,917.1999999284744,NA,instructions,27,530088,0.0-0.0-7.0-20.0,"[{""page_index"":0,""viewing_time"":917}]",NA,NA,NA,NA
data_2025-04-11-15-05-02.433489_2unck5ncuc,null,NA,audio-button-response,28,531231,0.0-0.0-7.0-21.0,NA,resource/audio/plaster_US.mp3,null,NA,NA
data_2025-04-11-15-05-02.433489_2unck5ncuc,null,NA,audio-button-response,29,533130,0.0-0.0-7.0-22.0,NA,resource/audio/plaster_TR.mp3,null,NA,NA
data_2025-04-11-15-05-02.433489_2unck5ncuc,null,NA,audio-button-response,30,537887,0.0-0.0-7.0-23.0,NA,resource/audio/plaster_NZ.mp3,null,NA,NA
data_2025-04-11-15-05-02.433489_2unck5ncuc,4368.299999952316,NA,audio-button-response,31,542508,0.0-0.0-7.0-24.0,NA,resource/audio/blank.mp3,1,"plaster_TR.mp3,plaster_NZ.mp3",NA
data_2025-04-11-15-05-02.433489_2unck5ncuc,1066.5,NA,instructions,32,543825,0.0-0.0-7.0-25.0,"[{""page_index"":0,""viewing_time"":1066.3999999761581}]",NA,NA,NA,NA
data_2025-04-11-15-05-02.433489_2unck5ncuc,null,NA,audio-button-response,33,546292,0.0-0.0-7.0-26.0,NA,resource/audio/aftershave_US.mp3,null,NA,NA
data_2025-04-11-15-05-02.433489_2unck5ncuc,null,NA,audio-button-response,34,548340,0.0-0.0-7.0-27.0,NA,resource/audio/aftershave_TR.mp3,null,NA,NA
data_2025-04-11-15-05-02.433489_2unck5ncuc,null,NA,audio-button-response,35,551924,0.0-0.0-7.0-28.0,NA,resource/audio/aftershave_NZ.mp3,null,NA,NA
data_2025-04-11-15-05-02.433489_2unck5ncuc,5768.899999976158,NA,audio-button-response,36,557946,0.0-0.0-7.0-29.0,NA,resource/audio/blank.mp3,0,"aftershave_TR.mp3,aftershave_NZ.mp3",NA
data_2025-04-11-15-05-02.433489_2unck5ncuc,1150.6000000238419,NA,instructions,37,559347,0.0-0.0-7.0-30.0,"[{""page_index"":0,""viewing_time"":1150.5}]",NA,NA,NA,NA
data_2025-04-11-15-05-02.433489_2unck5ncuc,null,NA,audio-button-response,38,560778,0.0-0.0-7.0-31.0,NA,resource/audio/flower_US.mp3,null,NA,NA
data_2025-04-11-15-05-02.433489_2unck5ncuc,null,NA,audio-button-response,39,564170,0.0-0.0-7.0-32.0,NA,resource/audio/flower_NZ.mp3,null,NA,NA
data_2025-04-11-15-05-02.433489_2unck5ncuc,null,NA,audio-button-response,40,566431,0.0-0.0-7.0-33.0,NA,resource/audio/flower_TR.mp3,null,NA,NA
data_2025-04-11-15-05-02.433489_2unck5ncuc,4383.300000071526,NA,audio-button-response,41,571067,0.0-0.0-7.0-34.0,NA,resource/audio/blank.mp3,1,"flower_NZ.mp3,flower_TR.mp3",NA
data_2025-04-11-15-05-02.433489_2unck5ncuc,1416.6999999284744,NA,instructions,42,572734,0.0-0.0-7.0-35.0,"[{""page_index"":0,""viewing_time"":1416.6000000238419}]",NA,NA,NA,NA
data_2025-04-11-15-05-02.433489_2unck5ncuc,null,NA,audio-button-response,43,574559,0.0-0.0-7.0-36.0,NA,resource/audio/email_US.mp3,null,NA,NA
data_2025-04-11-15-05-02.433489_2unck5ncuc,null,NA,audio-button-response,44,576842,0.0-0.0-7.0-37.0,NA,resource/audio/email_TR.mp3,null,NA,NA
data_2025-04-11-15-05-02.433489_2unck5ncuc,null,NA,audio-button-response,45,580148,0.0-0.0-7.0-38.0,NA,resource/audio/email_NZ.mp3,null,NA,NA
data_2025-04-11-15-05-02.433489_2unck5ncuc,969.8000000715256,NA,audio-button-response,46,581370,0.0-0.0-7.0-39.0,NA,resource/audio/blank.mp3,0,"email_TR.mp3,email_NZ.mp3",NA
data_2025-04-11-15-05-02.433489_2unck5ncuc,1115.6999999284744,NA,instructions,47,582737,0.0-0.0-7.0-40.0,"[{""page_index"":0,""viewing_time"":1115.5999999046326}]",NA,NA,NA,NA
data_2025-04-11-15-05-02.433489_2unck5ncuc,null,NA,audio-button-response,48,584330,0.0-0.0-7.0-41.0,NA,resource/audio/butterfly_US.mp3,null,NA,NA
data_2025-04-11-15-05-02.433489_2unck5ncuc,null,NA,audio-button-response,49,587423,0.0-0.0-7.0-42.0,NA,resource/audio/butterfly_NZ.mp3,null,NA,NA
data_2025-04-11-15-05-02.433489_2unck5ncuc,null,NA,audio-button-response,50,589279,0.0-0.0-7.0-43.0,NA,resource/audio/butterfly_TR.mp3,null,NA,NA
data_2025-04-11-15-05-02.433489_2unck5ncuc,791.3999999761581,NA,audio-button-response,51,590323,0.0-0.0-7.0-44.0,NA,resource/audio/blank.mp3,0,"butterfly_NZ.mp3,butterfly_TR.mp3",NA
data_2025-04-11-15-05-02.433489_2unck5ncuc,1016.6000000238419,NA,instructions,52,591590,0.0-0.0-7.0-45.0,"[{""page_index"":0,""viewing_time"":1016.3999999761581}]",NA,NA,NA,NA
data_2025-04-11-15-05-02.433489_2unck5ncuc,null,NA,audio-button-response,53,593204,0.0-0.0-7.0-46.0,NA,resource/audio/catfish_US.mp3,null,NA,NA
data_2025-04-11-15-05-02.433489_2unck5ncuc,null,NA,audio-button-response,54,596340,0.0-0.0-7.0-47.0,NA,resource/audio/catfish_NZ.mp3,null,NA,NA
data_2025-04-11-15-05-02.433489_2unck5ncuc,null,NA,audio-button-response,55,597812,0.0-0.0-7.0-48.0,NA,resource/audio/catfish_TR.mp3,null,NA,NA
data_2025-04-11-15-05-02.433489_2unck5ncuc,3229.2000000476837,NA,audio-button-response,56,601293,0.0-0.0-7.0-49.0,NA,resource/audio/blank.mp3,1,"catfish_NZ.mp3,catfish_TR.mp3",NA
data_2025-04-11-15-05-02.433489_2unck5ncuc,865.8999999761581,NA,instructions,57,602410,0.0-0.0-7.0-50.0,"[{""page_index"":0,""viewing_time"":865.7999999523163}]",NA,NA,NA,NA
data_2025-04-11-15-05-02.433489_2unck5ncuc,null,NA,audio-button-response,58,604511,0.0-0.0-7.0-51.0,NA,resource/audio/elephant_US.mp3,null,NA,NA
data_2025-04-11-15-05-02.433489_2unck5ncuc,null,NA,audio-button-response,59,607561,0.0-0.0-7.0-52.0,NA,resource/audio/elephant_NZ.mp3,null,NA,NA
data_2025-04-11-15-05-02.433489_2unck5ncuc,null,NA,audio-button-response,60,609801,0.0-0.0-7.0-53.0,NA,resource/audio/elephant_TR.mp3,null,NA,NA
data_2025-04-11-15-05-02.433489_2unck5ncuc,1042.2000000476837,NA,audio-button-response,61,611096,0.0-0.0-7.0-54.0,NA,resource/audio/blank.mp3,0,"elephant_NZ.mp3,elephant_TR.mp3",NA
data_2025-04-11-15-05-02.433489_2unck5ncuc,1148.5,NA,instructions,62,612496,0.0-0.0-7.0-55.0,"[{""page_index"":0,""viewing_time"":1148.3999999761581}]",NA,NA,NA,NA
data_2025-04-11-15-05-02.433489_2unck5ncuc,null,NA,audio-button-response,63,613897,0.0-0.0-7.0-56.0,NA,resource/audio/dolphin_US.mp3,null,NA,NA
data_2025-04-11-15-05-02.433489_2unck5ncuc,null,NA,audio-button-response,64,617631,0.0-0.0-7.0-57.0,NA,resource/audio/dolphin_NZ.mp3,null,NA,NA
data_2025-04-11-15-05-02.433489_2unck5ncuc,null,NA,audio-button-response,65,618953,0.0-0.0-7.0-58.0,NA,resource/audio/dolphin_TR.mp3,null,NA,NA
data_2025-04-11-15-05-02.433489_2unck5ncuc,1226.2999999523163,NA,audio-button-response,66,620432,0.0-0.0-7.0-59.0,NA,resource/audio/blank.mp3,1,"dolphin_NZ.mp3,dolphin_TR.mp3",NA
data_2025-04-11-15-05-02.433489_2unck5ncuc,1381.8999999761581,NA,instructions,67,622066,0.0-0.0-7.0-60.0,"[{""page_index"":0,""viewing_time"":1381.7000000476837}]",NA,NA,NA,NA
data_2025-04-11-15-05-02.433489_2unck5ncuc,null,NA,audio-button-response,68,623433,0.0-0.0-7.0-61.0,NA,resource/audio/fiance_US.mp3,null,NA,NA
data_2025-04-11-15-05-02.433489_2unck5ncuc,null,NA,audio-button-response,69,624841,0.0-0.0-7.0-62.0,NA,resource/audio/fiance_TR.mp3,null,NA,NA
data_2025-04-11-15-05-02.433489_2unck5ncuc,null,NA,audio-button-response,70,629001,0.0-0.0-7.0-63.0,NA,resource/audio/fiance_NZ.mp3,null,NA,NA
data_2025-04-11-15-05-02.433489_2unck5ncuc,949.2000000476837,NA,audio-button-response,71,630202,0.0-0.0-7.0-64.0,NA,resource/audio/blank.mp3,0,"fiance_TR.mp3,fiance_NZ.mp3",NA
data_2025-04-11-15-05-02.433489_2unck5ncuc,983.1000000238419,NA,instructions,72,631436,0.0-0.0-7.0-65.0,"[{""page_index"":0,""viewing_time"":983}]",NA,NA,NA,NA
data_2025-04-11-15-05-02.433489_2unck5ncuc,null,NA,audio-button-response,73,633929,0.0-0.0-7.0-66.0,NA,resource/audio/basket_US.mp3,null,NA,NA
data_2025-04-11-15-05-02.433489_2unck5ncuc,null,NA,audio-button-response,74,637236,0.0-0.0-7.0-67.0,NA,resource/audio/basket_NZ.mp3,null,NA,NA
data_2025-04-11-15-05-02.433489_2unck5ncuc,null,NA,audio-button-response,75,639774,0.0-0.0-7.0-68.0,NA,resource/audio/basket_TR.mp3,null,NA,NA
data_2025-04-11-15-05-02.433489_2unck5ncuc,1044.6000000238419,NA,audio-button-response,76,641072,0.0-0.0-7.0-69.0,NA,resource/audio/blank.mp3,0,"basket_NZ.mp3,basket_TR.mp3",NA
data_2025-04-11-15-05-02.433489_2unck5ncuc,1798.6999999284744,NA,instructions,77,643122,0.0-0.0-7.0-70.0,"[{""page_index"":0,""viewing_time"":1798.5999999046326}]",NA,NA,NA,NA
data_2025-04-11-15-05-02.433489_2unck5ncuc,null,NA,audio-button-response,78,645577,0.0-0.0-7.0-71.0,NA,resource/audio/fragrance_US.mp3,null,NA,NA
data_2025-04-11-15-05-02.433489_2unck5ncuc,null,NA,audio-button-response,79,649247,0.0-0.0-7.0-72.0,NA,resource/audio/fragrance_NZ.mp3,null,NA,NA
data_2025-04-11-15-05-02.433489_2unck5ncuc,null,NA,audio-button-response,80,651657,0.0-0.0-7.0-73.0,NA,resource/audio/fragrance_TR.mp3,null,NA,NA
data_2025-04-11-15-05-02.433489_2unck5ncuc,982.7999999523163,NA,audio-button-response,81,652892,0.0-0.0-7.0-74.0,NA,resource/audio/blank.mp3,0,"fragrance_NZ.mp3,fragrance_TR.mp3",NA
data_2025-04-11-15-05-02.433489_2unck5ncuc,715.2000000476837,NA,instructions,82,653859,0.0-0.0-7.0-75.0,"[{""page_index"":0,""viewing_time"":715.1000000238419}]",NA,NA,NA,NA
data_2025-04-11-15-05-02.433489_2unck5ncuc,null,NA,audio-button-response,83,655390,0.0-0.0-7.0-76.0,NA,resource/audio/scorpion_US.mp3,null,NA,NA
data_2025-04-11-15-05-02.433489_2unck5ncuc,null,NA,audio-button-response,84,656841,0.0-0.0-7.0-77.0,NA,resource/audio/scorpion_TR.mp3,null,NA,NA
data_2025-04-11-15-05-02.433489_2unck5ncuc,null,NA,audio-button-response,85,659934,0.0-0.0-7.0-78.0,NA,resource/audio/scorpion_NZ.mp3,null,NA,NA
data_2025-04-11-15-05-02.433489_2unck5ncuc,5692.5,NA,audio-button-response,86,665879,0.0-0.0-7.0-79.0,NA,resource/audio/blank.mp3,1,"scorpion_TR.mp3,scorpion_NZ.mp3",NA
data_2025-04-11-15-05-02.433489_2unck5ncuc,864.8999999761581,NA,instructions,87,666996,0.0-0.0-7.0-80.0,"[{""page_index"":0,""viewing_time"":864.7999999523163}]",NA,NA,NA,NA
data_2025-04-11-15-05-02.433489_2unck5ncuc,null,NA,audio-button-response,88,669641,0.0-0.0-7.0-81.0,NA,resource/audio/kitten_US.mp3,null,NA,NA
data_2025-04-11-15-05-02.433489_2unck5ncuc,null,NA,audio-button-response,89,671860,0.0-0.0-7.0-82.0,NA,resource/audio/kitten_TR.mp3,null,NA,NA
data_2025-04-11-15-05-02.433489_2unck5ncuc,null,NA,audio-button-response,90,675166,0.0-0.0-7.0-83.0,NA,resource/audio/kitten_NZ.mp3,null,NA,NA
data_2025-04-11-15-05-02.433489_2unck5ncuc,8883.200000047684,NA,audio-button-response,91,684302,0.0-0.0-7.0-84.0,NA,resource/audio/blank.mp3,1,"kitten_TR.mp3,kitten_NZ.mp3",NA
data_2025-04-11-15-05-02.433489_2unck5ncuc,748.5,NA,instructions,92,685302,0.0-0.0-7.0-85.0,"[{""page_index"":0,""viewing_time"":748.3000000715256}]",NA,NA,NA,NA
data_2025-04-11-15-05-02.433489_2unck5ncuc,null,NA,audio-button-response,93,686750,0.0-0.0-7.0-86.0,NA,resource/audio/hamster_US.mp3,null,NA,NA
data_2025-04-11-15-05-02.433489_2unck5ncuc,null,NA,audio-button-response,94,687966,0.0-0.0-7.0-87.0,NA,resource/audio/hamster_TR.mp3,null,NA,NA
data_2025-04-11-15-05-02.433489_2unck5ncuc,null,NA,audio-button-response,95,692084,0.0-0.0-7.0-88.0,NA,resource/audio/hamster_NZ.mp3,null,NA,NA
data_2025-04-11-15-05-02.433489_2unck5ncuc,3754.100000023842,NA,audio-button-response,96,696089,0.0-0.0-7.0-89.0,NA,resource/audio/blank.mp3,1,"hamster_TR.mp3,hamster_NZ.mp3",NA
data_2025-04-11-15-05-02.433489_2unck5ncuc,765.6000000238419,NA,instructions,97,697106,0.0-0.0-7.0-90.0,"[{""page_index"":0,""viewing_time"":765.3999999761581}]",NA,NA,NA,NA
data_2025-04-11-15-05-02.433489_2unck5ncuc,null,NA,audio-button-response,98,699123,0.0-0.0-7.0-91.0,NA,resource/audio/freezer_US.mp3,null,NA,NA
data_2025-04-11-15-05-02.433489_2unck5ncuc,null,NA,audio-button-response,99,701150,0.0-0.0-7.0-92.0,NA,resource/audio/freezer_TR.mp3,null,NA,NA
data_2025-04-11-15-05-02.433489_2unck5ncuc,null,NA,audio-button-response,100,706164,0.0-0.0-7.0-93.0,NA,resource/audio/freezer_NZ.mp3,null,NA,NA
data_2025-04-11-15-05-02.433489_2unck5ncuc,2110,NA,audio-button-response,101,708526,0.0-0.0-7.0-94.0,NA,resource/audio/blank.mp3,0,"freezer_TR.mp3,freezer_NZ.mp3",NA
data_2025-04-11-15-05-02.433489_2unck5ncuc,1133.3999999761581,NA,instructions,102,709910,0.0-0.0-7.0-95.0,"[{""page_index"":0,""viewing_time"":1133.2999999523163}]",NA,NA,NA,NA
data_2025-04-11-15-05-02.433489_2unck5ncuc,null,NA,audio-button-response,103,711262,0.0-0.0-7.0-96.0,NA,resource/audio/corral_US.mp3,null,NA,NA
data_2025-04-11-15-05-02.433489_2unck5ncuc,null,NA,audio-button-response,104,714334,0.0-0.0-7.0-97.0,NA,resource/audio/corral_NZ.mp3,null,NA,NA
data_2025-04-11-15-05-02.433489_2unck5ncuc,null,NA,audio-button-response,105,715465,0.0-0.0-7.0-98.0,NA,resource/audio/corral_TR.mp3,null,NA,NA
data_2025-04-11-15-05-02.433489_2unck5ncuc,1395,NA,audio-button-response,106,717112,0.0-0.0-7.0-99.0,NA,resource/audio/blank.mp3,0,"corral_NZ.mp3,corral_TR.mp3",NA
data_2025-04-11-15-05-02.433489_2unck5ncuc,1082,NA,instructions,107,718445,0.0-0.0-7.0-100.0,"[{""page_index"":0,""viewing_time"":1082}]",NA,NA,NA,NA
data_2025-04-11-15-05-02.433489_2unck5ncuc,null,NA,audio-button-response,108,720435,0.0-0.0-7.0-101.0,NA,resource/audio/garage_US.mp3,null,NA,NA
data_2025-04-11-15-05-02.433489_2unck5ncuc,null,NA,audio-button-response,109,724169,0.0-0.0-7.0-102.0,NA,resource/audio/garage_NZ.mp3,null,NA,NA
data_2025-04-11-15-05-02.433489_2unck5ncuc,null,NA,audio-button-response,110,726409,0.0-0.0-7.0-103.0,NA,resource/audio/garage_TR.mp3,null,NA,NA
data_2025-04-11-15-05-02.433489_2unck5ncuc,471.39999997615814,NA,audio-button-response,111,727132,0.0-0.0-7.0-104.0,NA,resource/audio/blank.mp3,0,"garage_NZ.mp3,garage_TR.mp3",NA
data_2025-04-11-15-05-02.433489_2unck5ncuc,915.8999999761581,NA,instructions,112,728298,0.0-0.0-7.0-105.0,"[{""page_index"":0,""viewing_time"":915.8000000715256}]",NA,NA,NA,NA
data_2025-04-11-15-05-02.433489_2unck5ncuc,null,NA,audio-button-response,113,730227,0.0-0.0-7.0-106.0,NA,resource/audio/syringe_US.mp3,null,NA,NA
data_2025-04-11-15-05-02.433489_2unck5ncuc,null,NA,audio-button-response,114,732531,0.0-0.0-7.0-107.0,NA,resource/audio/syringe_TR.mp3,null,NA,NA
data_2025-04-11-15-05-02.433489_2unck5ncuc,null,NA,audio-button-response,115,736222,0.0-0.0-7.0-108.0,NA,resource/audio/syringe_NZ.mp3,null,NA,NA
data_2025-04-11-15-05-02.433489_2unck5ncuc,1695.1999999284744,NA,audio-button-response,116,738168,0.0-0.0-7.0-109.0,NA,resource/audio/blank.mp3,0,"syringe_TR.mp3,syringe_NZ.mp3",NA
data_2025-04-11-15-05-02.433489_2unck5ncuc,833.1000000238419,NA,instructions,117,739252,0.0-0.0-7.0-110.0,"[{""page_index"":0,""viewing_time"":833}]",NA,NA,NA,NA
data_2025-04-11-15-05-02.433489_2unck5ncuc,null,NA,audio-button-response,118,740552,0.0-0.0-7.0-111.0,NA,resource/audio/giraffe_US.mp3,null,NA,NA
data_2025-04-11-15-05-02.433489_2unck5ncuc,null,NA,audio-button-response,119,743774,0.0-0.0-7.0-112.0,NA,resource/audio/giraffe_NZ.mp3,null,NA,NA
data_2025-04-11-15-05-02.433489_2unck5ncuc,null,NA,audio-button-response,120,745075,0.0-0.0-7.0-113.0,NA,resource/audio/giraffe_TR.mp3,null,NA,NA
data_2025-04-11-15-05-02.433489_2unck5ncuc,2944.100000023842,NA,audio-button-response,121,748271,0.0-0.0-7.0-114.0,NA,resource/audio/blank.mp3,1,"giraffe_NZ.mp3,giraffe_TR.mp3",NA
data_2025-04-11-15-05-02.433489_2unck5ncuc,833.5,NA,instructions,122,749356,0.0-0.0-7.0-115.0,"[{""page_index"":0,""viewing_time"":833.3999999761581}]",NA,NA,NA,NA
data_2025-04-11-15-05-02.433489_2unck5ncuc,null,NA,audio-button-response,123,750899,0.0-0.0-7.0-116.0,NA,resource/audio/kangaroo_US.mp3,null,NA,NA
data_2025-04-11-15-05-02.433489_2unck5ncuc,null,NA,audio-button-response,124,752200,0.0-0.0-7.0-117.0,NA,resource/audio/kangaroo_TR.mp3,null,NA,NA
data_2025-04-11-15-05-02.433489_2unck5ncuc,null,NA,audio-button-response,125,755593,0.0-0.0-7.0-118.0,NA,resource/audio/kangaroo_NZ.mp3,null,NA,NA
data_2025-04-11-15-05-02.433489_2unck5ncuc,563.8999999761581,NA,audio-button-response,126,756407,0.0-0.0-7.0-119.0,NA,resource/audio/blank.mp3,1,"kangaroo_TR.mp3,kangaroo_NZ.mp3",NA
data_2025-04-11-15-05-02.433489_2unck5ncuc,782.4000000953674,NA,instructions,127,757441,0.0-0.0-7.0-120.0,"[{""page_index"":0,""viewing_time"":782.2000000476837}]",NA,NA,NA,NA
data_2025-04-11-15-05-02.433489_2unck5ncuc,null,NA,audio-button-response,128,759048,0.0-0.0-7.0-121.0,NA,resource/audio/snake_US.mp3,null,NA,NA
data_2025-04-11-15-05-02.433489_2unck5ncuc,null,NA,audio-button-response,129,760243,0.0-0.0-7.0-122.0,NA,resource/audio/snake_TR.mp3,null,NA,NA
data_2025-04-11-15-05-02.433489_2unck5ncuc,null,NA,audio-button-response,130,763806,0.0-0.0-7.0-123.0,NA,resource/audio/snake_NZ.mp3,null,NA,NA
data_2025-04-11-15-05-02.433489_2unck5ncuc,752.3999999761581,NA,audio-button-response,131,764810,0.0-0.0-7.0-124.0,NA,resource/audio/blank.mp3,1,"snake_TR.mp3,snake_NZ.mp3",NA
data_2025-04-11-15-05-02.433489_2unck5ncuc,1415.2999999523163,NA,instructions,132,766477,0.0-0.0-7.0-125.0,"[{""page_index"":0,""viewing_time"":1415.1999999284744}]",NA,NA,NA,NA
data_2025-04-11-15-05-02.433489_2unck5ncuc,null,NA,audio-button-response,133,768840,0.0-0.0-7.0-126.0,NA,resource/audio/podium_US.mp3,null,NA,NA
data_2025-04-11-15-05-02.433489_2unck5ncuc,null,NA,audio-button-response,134,771080,0.0-0.0-7.0-127.0,NA,resource/audio/podium_TR.mp3,null,NA,NA
data_2025-04-11-15-05-02.433489_2unck5ncuc,null,NA,audio-button-response,135,773555,0.0-0.0-7.0-128.0,NA,resource/audio/podium_NZ.mp3,null,NA,NA
data_2025-04-11-15-05-02.433489_2unck5ncuc,505.89999997615814,NA,audio-button-response,136,774313,0.0-0.0-7.0-129.0,NA,resource/audio/blank.mp3,1,"podium_TR.mp3,podium_NZ.mp3",NA
data_2025-04-11-15-05-02.433489_2unck5ncuc,1065.5,NA,instructions,137,775630,0.0-0.0-7.0-130.0,"[{""page_index"":0,""viewing_time"":1065.5}]",NA,NA,NA,NA
data_2025-04-11-15-05-02.433489_2unck5ncuc,null,NA,audio-button-response,138,778227,0.0-0.0-7.0-131.0,NA,resource/audio/tiger_US.mp3,null,NA,NA
data_2025-04-11-15-05-02.433489_2unck5ncuc,null,NA,audio-button-response,139,780467,0.0-0.0-7.0-132.0,NA,resource/audio/tiger_TR.mp3,null,NA,NA
data_2025-04-11-15-05-02.433489_2unck5ncuc,null,NA,audio-button-response,140,783560,0.0-0.0-7.0-133.0,NA,resource/audio/tiger_NZ.mp3,null,NA,NA
data_2025-04-11-15-05-02.433489_2unck5ncuc,4539.199999928474,NA,audio-button-response,141,788350,0.0-0.0-7.0-134.0,NA,resource/audio/blank.mp3,0,"tiger_TR.mp3,tiger_NZ.mp3",NA
data_2025-04-11-15-05-02.433489_2unck5ncuc,899.2999999523163,NA,instructions,142,789501,0.0-0.0-7.0-135.0,"[{""page_index"":0,""viewing_time"":899.1000000238419}]",NA,NA,NA,NA
data_2025-04-11-15-05-02.433489_2unck5ncuc,null,NA,audio-button-response,143,790643,0.0-0.0-7.0-136.0,NA,resource/audio/cricket_US.mp3,null,NA,NA
data_2025-04-11-15-05-02.433489_2unck5ncuc,null,NA,audio-button-response,144,793800,0.0-0.0-7.0-137.0,NA,resource/audio/cricket_NZ.mp3,null,NA,NA
data_2025-04-11-15-05-02.433489_2unck5ncuc,null,NA,audio-button-response,145,794952,0.0-0.0-7.0-138.0,NA,resource/audio/cricket_TR.mp3,null,NA,NA
data_2025-04-11-15-05-02.433489_2unck5ncuc,982,NA,audio-button-response,146,796187,0.0-0.0-7.0-139.0,NA,resource/audio/blank.mp3,0,"cricket_NZ.mp3,cricket_TR.mp3",NA
data_2025-04-11-15-05-02.433489_2unck5ncuc,966.0999999046326,NA,instructions,147,797404,0.0-0.0-7.0-140.0,"[{""page_index"":0,""viewing_time"":965.8999999761581}]",NA,NA,NA,NA
data_2025-04-11-15-05-02.433489_2unck5ncuc,null,NA,audio-button-response,148,799155,0.0-0.0-7.0-141.0,NA,resource/audio/fiber_US.mp3,null,NA,NA
data_2025-04-11-15-05-02.433489_2unck5ncuc,null,NA,audio-button-response,149,802014,0.0-0.0-7.0-142.0,NA,resource/audio/fiber_NZ.mp3,null,NA,NA
data_2025-04-11-15-05-02.433489_2unck5ncuc,null,NA,audio-button-response,150,804104,0.0-0.0-7.0-143.0,NA,resource/audio/fiber_TR.mp3,null,NA,NA
data_2025-04-11-15-05-02.433489_2unck5ncuc,899.8999999761581,NA,audio-button-response,151,805256,0.0-0.0-7.0-144.0,NA,resource/audio/blank.mp3,0,"fiber_NZ.mp3,fiber_TR.mp3",NA
data_2025-04-11-15-05-02.433489_2unck5ncuc,1082.1000000238419,NA,instructions,152,806590,0.0-0.0-7.0-145.0,"[{""page_index"":0,""viewing_time"":1082}]",NA,NA,NA,NA
data_2025-04-11-15-05-02.433489_2unck5ncuc,null,NA,audio-button-response,153,807965,0.0-0.0-7.0-146.0,NA,resource/audio/rattlesnake_US.mp3,null,NA,NA
data_2025-04-11-15-05-02.433489_2unck5ncuc,null,NA,audio-button-response,154,809288,0.0-0.0-7.0-147.0,NA,resource/audio/rattlesnake_TR.mp3,null,NA,NA
data_2025-04-11-15-05-02.433489_2unck5ncuc,null,NA,audio-button-response,155,812787,0.0-0.0-7.0-148.0,NA,resource/audio/rattlesnake_NZ.mp3,null,NA,NA
data_2025-04-11-15-05-02.433489_2unck5ncuc,668.8999999761581,NA,audio-button-response,156,813708,0.0-0.0-7.0-149.0,NA,resource/audio/blank.mp3,1,"rattlesnake_TR.mp3,rattlesnake_NZ.mp3",NA
data_2025-04-11-15-05-02.433489_2unck5ncuc,241357.10000002384,NA,html-keyboard-response,157,1055316,0.0-0.0-8.0,NA,"<p>Thank you for your participation, your responses have been recorded!</p>
  <p>To receive full credit, please complete the following demographic form. Click <a target=""_blank"" rel=""noopener noreferrer"" href=""https://utexas.qualtrics.com/jfe/form/SV_es5YLeHNdLkWZ4W"">here</a> to proceed.</p>",NA,NA,32
