file_id,rt,responses,trial_type,trial_index,time_elapsed,internal_node_id,view_history,stimulus,button_pressed,speakers,key_press
data_2025-03-31-00-28-23_ekua4rds4u,21806.59999999404,"{""Participant ID"":""testus""}",survey-text,0,21813,0.0-0.0-0.0-0.0,NA,NA,NA,NA,NA
data_2025-03-31-00-28-23_ekua4rds4u,33539.89999997616,NA,instructions,1,55354,0.0-0.0-1.0,"[{""page_index"":0,""viewing_time"":33539.69999998808}]",NA,NA,NA,NA
data_2025-03-31-00-28-23_ekua4rds4u,1450.800000011921,NA,instructions,2,57067,0.0-0.0-2.0-0.0,"[{""page_index"":0,""viewing_time"":1450.6000000238419}]",NA,NA,NA,NA
data_2025-03-31-00-28-23_ekua4rds4u,null,NA,audio-button-response,3,61075,0.0-0.0-2.0-1.0,NA,resource/audio/lion_US.mp3,null,NA,NA
data_2025-03-31-00-28-23_ekua4rds4u,null,NA,audio-button-response,4,64702,0.0-0.0-2.0-2.0,NA,resource/audio/lion_NZ.mp3,null,NA,NA
data_2025-03-31-00-28-23_ekua4rds4u,null,NA,audio-button-response,5,66835,0.0-0.0-2.0-3.0,NA,resource/audio/lion_TR.mp3,null,NA,NA
data_2025-03-31-00-28-23_ekua4rds4u,2169.9000000059605,NA,audio-button-response,6,69257,0.0-0.0-2.0-4.0,NA,resource/audio/blank.mp3,0,"lion_NZ.mp3,lion_TR.mp3",NA
data_2025-03-31-00-28-23_ekua4rds4u,899.4000000059605,NA,instructions,7,70410,0.0-0.0-2.0-5.0,"[{""page_index"":0,""viewing_time"":899.1999999880791}]",NA,NA,NA,NA
data_2025-03-31-00-28-23_ekua4rds4u,null,NA,audio-button-response,8,73108,0.0-0.0-2.0-6.0,NA,resource/audio/elephant_US.mp3,null,NA,NA
data_2025-03-31-00-28-23_ekua4rds4u,null,NA,audio-button-response,9,76179,0.0-0.0-2.0-7.0,NA,resource/audio/elephant_NZ.mp3,null,NA,NA
data_2025-03-31-00-28-23_ekua4rds4u,null,NA,audio-button-response,10,78440,0.0-0.0-2.0-8.0,NA,resource/audio/elephant_TR.mp3,null,NA,NA
data_2025-03-31-00-28-23_ekua4rds4u,1040,NA,audio-button-response,11,79747,0.0-0.0-2.0-9.0,NA,resource/audio/blank.mp3,0,"elephant_NZ.mp3,elephant_TR.mp3",NA
data_2025-03-31-00-28-23_ekua4rds4u,715.8000000119209,NA,instructions,12,80714,0.0-0.0-2.0-10.0,"[{""page_index"":0,""viewing_time"":715.7000000178814}]",NA,NA,NA,NA
data_2025-03-31-00-28-23_ekua4rds4u,null,NA,audio-button-response,13,83561,0.0-0.0-2.0-11.0,NA,resource/audio/scrapbook_US.mp3,null,NA,NA
data_2025-03-31-00-28-23_ekua4rds4u,null,NA,audio-button-response,14,85481,0.0-0.0-2.0-12.0,NA,resource/audio/scrapbook_TR.mp3,null,NA,NA
data_2025-03-31-00-28-23_ekua4rds4u,null,NA,audio-button-response,15,88468,0.0-0.0-2.0-13.0,NA,resource/audio/scrapbook_NZ.mp3,null,NA,NA
data_2025-03-31-00-28-23_ekua4rds4u,545.3000000119209,NA,audio-button-response,16,89266,0.0-0.0-2.0-14.0,NA,resource/audio/blank.mp3,0,"scrapbook_TR.mp3,scrapbook_NZ.mp3",NA
data_2025-03-31-00-28-23_ekua4rds4u,629.5,NA,instructions,17,90147,0.0-0.0-2.0-15.0,"[{""page_index"":0,""viewing_time"":629.4000000059605}]",NA,NA,NA,NA
data_2025-03-31-00-28-23_ekua4rds4u,null,NA,audio-button-response,18,93119,0.0-0.0-2.0-16.0,NA,resource/audio/woodpecker_US.mp3,null,NA,NA
data_2025-03-31-00-28-23_ekua4rds4u,null,NA,audio-button-response,19,96255,0.0-0.0-2.0-17.0,NA,resource/audio/woodpecker_NZ.mp3,null,NA,NA
data_2025-03-31-00-28-23_ekua4rds4u,null,NA,audio-button-response,20,97577,0.0-0.0-2.0-18.0,NA,resource/audio/woodpecker_TR.mp3,null,NA,NA
data_2025-03-31-00-28-23_ekua4rds4u,612.5999999940395,NA,audio-button-response,21,98443,0.0-0.0-2.0-19.0,NA,resource/audio/blank.mp3,0,"woodpecker_NZ.mp3,woodpecker_TR.mp3",NA
data_2025-03-31-00-28-23_ekua4rds4u,1146.7000000178814,NA,instructions,22,99845,0.0-0.0-2.0-20.0,"[{""page_index"":0,""viewing_time"":1146.5}]",NA,NA,NA,NA
data_2025-03-31-00-28-23_ekua4rds4u,null,NA,audio-button-response,23,103210,0.0-0.0-2.0-21.0,NA,resource/audio/spider_US.mp3,null,NA,NA
data_2025-03-31-00-28-23_ekua4rds4u,null,NA,audio-button-response,24,105493,0.0-0.0-2.0-22.0,NA,resource/audio/spider_TR.mp3,null,NA,NA
data_2025-03-31-00-28-23_ekua4rds4u,null,NA,audio-button-response,25,108650,0.0-0.0-2.0-23.0,NA,resource/audio/spider_NZ.mp3,null,NA,NA
data_2025-03-31-00-28-23_ekua4rds4u,286.40000000596046,NA,audio-button-response,26,109189,0.0-0.0-2.0-24.0,NA,resource/audio/blank.mp3,0,"spider_TR.mp3,spider_NZ.mp3",NA
data_2025-03-31-00-28-23_ekua4rds4u,525.0999999940395,NA,instructions,27,109971,0.0-0.0-2.0-25.0,"[{""page_index"":0,""viewing_time"":525}]",NA,NA,NA,NA
data_2025-03-31-00-28-23_ekua4rds4u,null,NA,audio-button-response,28,113343,0.0-0.0-2.0-26.0,NA,resource/audio/shellfish_US.mp3,null,NA,NA
data_2025-03-31-00-28-23_ekua4rds4u,null,NA,audio-button-response,29,114666,0.0-0.0-2.0-27.0,NA,resource/audio/shellfish_TR.mp3,null,NA,NA
data_2025-03-31-00-28-23_ekua4rds4u,null,NA,audio-button-response,30,117610,0.0-0.0-2.0-28.0,NA,resource/audio/shellfish_NZ.mp3,null,NA,NA
data_2025-03-31-00-28-23_ekua4rds4u,554.1999999880791,NA,audio-button-response,31,118428,0.0-0.0-2.0-29.0,NA,resource/audio/blank.mp3,1,"shellfish_TR.mp3,shellfish_NZ.mp3",NA
data_2025-03-31-00-28-23_ekua4rds4u,1321.7999999821186,NA,instructions,32,120006,0.0-0.0-2.0-30.0,"[{""page_index"":0,""viewing_time"":1321.5999999940395}]",NA,NA,NA,NA
data_2025-03-31-00-28-23_ekua4rds4u,null,NA,audio-button-response,33,122667,0.0-0.0-2.0-31.0,NA,resource/audio/fiber_US.mp3,null,NA,NA
data_2025-03-31-00-28-23_ekua4rds4u,null,NA,audio-button-response,34,125547,0.0-0.0-2.0-32.0,NA,resource/audio/fiber_NZ.mp3,null,NA,NA
data_2025-03-31-00-28-23_ekua4rds4u,null,NA,audio-button-response,35,127659,0.0-0.0-2.0-33.0,NA,resource/audio/fiber_TR.mp3,null,NA,NA
data_2025-03-31-00-28-23_ekua4rds4u,1078.300000011921,NA,audio-button-response,36,128988,0.0-0.0-2.0-34.0,NA,resource/audio/blank.mp3,1,"fiber_NZ.mp3,fiber_TR.mp3",NA
data_2025-03-31-00-28-23_ekua4rds4u,703.8000000119209,NA,instructions,37,129949,0.0-0.0-2.0-35.0,"[{""page_index"":0,""viewing_time"":703.6999999880791}]",NA,NA,NA,NA
data_2025-03-31-00-28-23_ekua4rds4u,null,NA,audio-button-response,38,133099,0.0-0.0-2.0-36.0,NA,resource/audio/gadget_US.mp3,null,NA,NA
data_2025-03-31-00-28-23_ekua4rds4u,null,NA,audio-button-response,39,136470,0.0-0.0-2.0-37.0,NA,resource/audio/gadget_NZ.mp3,null,NA,NA
data_2025-03-31-00-28-23_ekua4rds4u,null,NA,audio-button-response,40,139030,0.0-0.0-2.0-38.0,NA,resource/audio/gadget_TR.mp3,null,NA,NA
data_2025-03-31-00-28-23_ekua4rds4u,1800.3999999761581,NA,audio-button-response,41,141090,0.0-0.0-2.0-39.0,NA,resource/audio/blank.mp3,1,"gadget_NZ.mp3,gadget_TR.mp3",NA
data_2025-03-31-00-28-23_ekua4rds4u,1181.8999999761581,NA,instructions,42,142536,0.0-0.0-2.0-40.0,"[{""page_index"":0,""viewing_time"":1181.7999999821186}]",NA,NA,NA,NA
data_2025-03-31-00-28-23_ekua4rds4u,null,NA,audio-button-response,43,145473,0.0-0.0-2.0-41.0,NA,resource/audio/walrus_US.mp3,null,NA,NA
data_2025-03-31-00-28-23_ekua4rds4u,null,NA,audio-button-response,44,148118,0.0-0.0-2.0-42.0,NA,resource/audio/walrus_NZ.mp3,null,NA,NA
data_2025-03-31-00-28-23_ekua4rds4u,null,NA,audio-button-response,45,149484,0.0-0.0-2.0-43.0,NA,resource/audio/walrus_TR.mp3,null,NA,NA
data_2025-03-31-00-28-23_ekua4rds4u,742.0999999940395,NA,audio-button-response,46,150477,0.0-0.0-2.0-44.0,NA,resource/audio/blank.mp3,0,"walrus_NZ.mp3,walrus_TR.mp3",NA
data_2025-03-31-00-28-23_ekua4rds4u,557.6000000238419,NA,instructions,47,151285,0.0-0.0-2.0-45.0,"[{""page_index"":0,""viewing_time"":557.5}]",NA,NA,NA,NA
data_2025-03-31-00-28-23_ekua4rds4u,null,NA,audio-button-response,48,154497,0.0-0.0-2.0-46.0,NA,resource/audio/octopus_US.mp3,null,NA,NA
data_2025-03-31-00-28-23_ekua4rds4u,null,NA,audio-button-response,49,155969,0.0-0.0-2.0-47.0,NA,resource/audio/octopus_TR.mp3,null,NA,NA
data_2025-03-31-00-28-23_ekua4rds4u,null,NA,audio-button-response,50,159084,0.0-0.0-2.0-48.0,NA,resource/audio/octopus_NZ.mp3,null,NA,NA
data_2025-03-31-00-28-23_ekua4rds4u,948.7999999821186,NA,audio-button-response,51,160284,0.0-0.0-2.0-49.0,NA,resource/audio/blank.mp3,0,"octopus_TR.mp3,octopus_NZ.mp3",NA
data_2025-03-31-00-28-23_ekua4rds4u,744.9000000059605,NA,instructions,52,161287,0.0-0.0-2.0-50.0,"[{""page_index"":0,""viewing_time"":744.7999999821186}]",NA,NA,NA,NA
data_2025-03-31-00-28-23_ekua4rds4u,null,NA,audio-button-response,53,163885,0.0-0.0-2.0-51.0,NA,resource/audio/reindeer_US.mp3,null,NA,NA
data_2025-03-31-00-28-23_ekua4rds4u,null,NA,audio-button-response,54,166636,0.0-0.0-2.0-52.0,NA,resource/audio/reindeer_TR.mp3,null,NA,NA
data_2025-03-31-00-28-23_ekua4rds4u,null,NA,audio-button-response,55,169196,0.0-0.0-2.0-53.0,NA,resource/audio/reindeer_NZ.mp3,null,NA,NA
data_2025-03-31-00-28-23_ekua4rds4u,605.8000000119209,NA,audio-button-response,56,170053,0.0-0.0-2.0-54.0,NA,resource/audio/blank.mp3,0,"reindeer_TR.mp3,reindeer_NZ.mp3",NA
data_2025-03-31-00-28-23_ekua4rds4u,613.0999999940395,NA,instructions,57,170917,0.0-0.0-2.0-55.0,"[{""page_index"":0,""viewing_time"":613}]",NA,NA,NA,NA
data_2025-03-31-00-28-23_ekua4rds4u,null,NA,audio-button-response,58,174189,0.0-0.0-2.0-56.0,NA,resource/audio/aftershave_US.mp3,null,NA,NA
data_2025-03-31-00-28-23_ekua4rds4u,null,NA,audio-button-response,59,177794,0.0-0.0-2.0-57.0,NA,resource/audio/aftershave_NZ.mp3,null,NA,NA
data_2025-03-31-00-28-23_ekua4rds4u,null,NA,audio-button-response,60,179820,0.0-0.0-2.0-58.0,NA,resource/audio/aftershave_TR.mp3,null,NA,NA
data_2025-03-31-00-28-23_ekua4rds4u,440.59999999403954,NA,audio-button-response,61,180513,0.0-0.0-2.0-59.0,NA,resource/audio/blank.mp3,1,"aftershave_NZ.mp3,aftershave_TR.mp3",NA
data_2025-03-31-00-28-23_ekua4rds4u,544.3999999761581,NA,instructions,62,181312,0.0-0.0-2.0-60.0,"[{""page_index"":0,""viewing_time"":544.2999999821186}]",NA,NA,NA,NA
data_2025-03-31-00-28-23_ekua4rds4u,null,NA,audio-button-response,63,183874,0.0-0.0-2.0-61.0,NA,resource/audio/syringe_US.mp3,null,NA,NA
data_2025-03-31-00-28-23_ekua4rds4u,null,NA,audio-button-response,64,187564,0.0-0.0-2.0-62.0,NA,resource/audio/syringe_NZ.mp3,null,NA,NA
data_2025-03-31-00-28-23_ekua4rds4u,null,NA,audio-button-response,65,189868,0.0-0.0-2.0-63.0,NA,resource/audio/syringe_TR.mp3,null,NA,NA
data_2025-03-31-00-28-23_ekua4rds4u,502.09999999403954,NA,audio-button-response,66,190623,0.0-0.0-2.0-64.0,NA,resource/audio/blank.mp3,1,"syringe_NZ.mp3,syringe_TR.mp3",NA
data_2025-03-31-00-28-23_ekua4rds4u,578.0999999940395,NA,instructions,67,191456,0.0-0.0-2.0-65.0,"[{""page_index"":0,""viewing_time"":577.8999999761581}]",NA,NA,NA,NA
data_2025-03-31-00-28-23_ekua4rds4u,null,NA,audio-button-response,68,194221,0.0-0.0-2.0-66.0,NA,resource/audio/caterpillar_US.mp3,null,NA,NA
data_2025-03-31-00-28-23_ekua4rds4u,null,NA,audio-button-response,69,197570,0.0-0.0-2.0-67.0,NA,resource/audio/caterpillar_NZ.mp3,null,NA,NA
data_2025-03-31-00-28-23_ekua4rds4u,null,NA,audio-button-response,70,198894,0.0-0.0-2.0-68.0,NA,resource/audio/caterpillar_TR.mp3,null,NA,NA
data_2025-03-31-00-28-23_ekua4rds4u,749,NA,audio-button-response,71,199896,0.0-0.0-2.0-69.0,NA,resource/audio/blank.mp3,1,"caterpillar_NZ.mp3,caterpillar_TR.mp3",NA
data_2025-03-31-00-28-23_ekua4rds4u,1330.699999988079,NA,instructions,72,201478,0.0-0.0-2.0-70.0,"[{""page_index"":0,""viewing_time"":1330.5999999940395}]",NA,NA,NA,NA
data_2025-03-31-00-28-23_ekua4rds4u,null,NA,audio-button-response,73,204313,0.0-0.0-2.0-71.0,NA,resource/audio/jewellery_US.mp3,null,NA,NA
data_2025-03-31-00-28-23_ekua4rds4u,null,NA,audio-button-response,74,206253,0.0-0.0-2.0-72.0,NA,resource/audio/jewellery_TR.mp3,null,NA,NA
data_2025-03-31-00-28-23_ekua4rds4u,null,NA,audio-button-response,75,208856,0.0-0.0-2.0-73.0,NA,resource/audio/jewellery_NZ.mp3,null,NA,NA
data_2025-03-31-00-28-23_ekua4rds4u,846.5,NA,audio-button-response,76,209955,0.0-0.0-2.0-74.0,NA,resource/audio/blank.mp3,0,"jewellery_TR.mp3,jewellery_NZ.mp3",NA
data_2025-03-31-00-28-23_ekua4rds4u,699.0999999940395,NA,instructions,77,210905,0.0-0.0-2.0-75.0,"[{""page_index"":0,""viewing_time"":699}]",NA,NA,NA,NA
data_2025-03-31-00-28-23_ekua4rds4u,null,NA,audio-button-response,78,213229,0.0-0.0-2.0-76.0,NA,resource/audio/softball_US.mp3,null,NA,NA
data_2025-03-31-00-28-23_ekua4rds4u,null,NA,audio-button-response,79,214425,0.0-0.0-2.0-77.0,NA,resource/audio/softball_TR.mp3,null,NA,NA
data_2025-03-31-00-28-23_ekua4rds4u,null,NA,audio-button-response,80,216750,0.0-0.0-2.0-78.0,NA,resource/audio/softball_NZ.mp3,null,NA,NA
data_2025-03-31-00-28-23_ekua4rds4u,710.8000000119209,NA,audio-button-response,81,217713,0.0-0.0-2.0-79.0,NA,resource/audio/blank.mp3,1,"softball_TR.mp3,softball_NZ.mp3",NA
data_2025-03-31-00-28-23_ekua4rds4u,790,NA,instructions,82,218754,0.0-0.0-2.0-80.0,"[{""page_index"":0,""viewing_time"":789.7999999821186}]",NA,NA,NA,NA
data_2025-03-31-00-28-23_ekua4rds4u,null,NA,audio-button-response,83,222360,0.0-0.0-2.0-81.0,NA,resource/audio/catfish_US.mp3,null,NA,NA
data_2025-03-31-00-28-23_ekua4rds4u,null,NA,audio-button-response,84,223832,0.0-0.0-2.0-82.0,NA,resource/audio/catfish_TR.mp3,null,NA,NA
data_2025-03-31-00-28-23_ekua4rds4u,null,NA,audio-button-response,85,226990,0.0-0.0-2.0-83.0,NA,resource/audio/catfish_NZ.mp3,null,NA,NA
data_2025-03-31-00-28-23_ekua4rds4u,536.3999999761581,NA,audio-button-response,86,227777,0.0-0.0-2.0-84.0,NA,resource/audio/blank.mp3,1,"catfish_TR.mp3,catfish_NZ.mp3",NA
data_2025-03-31-00-28-23_ekua4rds4u,450.7999999821186,NA,instructions,87,228479,0.0-0.0-2.0-85.0,"[{""page_index"":0,""viewing_time"":450.69999998807907}]",NA,NA,NA,NA
data_2025-03-31-00-28-23_ekua4rds4u,null,NA,audio-button-response,88,231833,0.0-0.0-2.0-86.0,NA,resource/audio/beetle_US.mp3,null,NA,NA
data_2025-03-31-00-28-23_ekua4rds4u,null,NA,audio-button-response,89,232921,0.0-0.0-2.0-87.0,NA,resource/audio/beetle_TR.mp3,null,NA,NA
data_2025-03-31-00-28-23_ekua4rds4u,null,NA,audio-button-response,90,236996,0.0-0.0-2.0-88.0,NA,resource/audio/beetle_NZ.mp3,null,NA,NA
data_2025-03-31-00-28-23_ekua4rds4u,485.2999999821186,NA,audio-button-response,91,237747,0.0-0.0-2.0-89.0,NA,resource/audio/blank.mp3,0,"beetle_TR.mp3,beetle_NZ.mp3",NA
data_2025-03-31-00-28-23_ekua4rds4u,753.0999999940395,NA,instructions,92,238754,0.0-0.0-2.0-90.0,"[{""page_index"":0,""viewing_time"":753}]",NA,NA,NA,NA
data_2025-03-31-00-28-23_ekua4rds4u,null,NA,audio-button-response,93,241197,0.0-0.0-2.0-91.0,NA,resource/audio/matchbook_US.mp3,null,NA,NA
data_2025-03-31-00-28-23_ekua4rds4u,null,NA,audio-button-response,94,242968,0.0-0.0-2.0-92.0,NA,resource/audio/matchbook_TR.mp3,null,NA,NA
data_2025-03-31-00-28-23_ekua4rds4u,null,NA,audio-button-response,95,247022,0.0-0.0-2.0-93.0,NA,resource/audio/matchbook_NZ.mp3,null,NA,NA
data_2025-03-31-00-28-23_ekua4rds4u,433.89999997615814,NA,audio-button-response,96,247707,0.0-0.0-2.0-94.0,NA,resource/audio/blank.mp3,1,"matchbook_TR.mp3,matchbook_NZ.mp3",NA
data_2025-03-31-00-28-23_ekua4rds4u,862.7000000178814,NA,instructions,97,248821,0.0-0.0-2.0-95.0,"[{""page_index"":0,""viewing_time"":862.7000000178814}]",NA,NA,NA,NA
data_2025-03-31-00-28-23_ekua4rds4u,null,NA,audio-button-response,98,251737,0.0-0.0-2.0-96.0,NA,resource/audio/predator_US.mp3,null,NA,NA
data_2025-03-31-00-28-23_ekua4rds4u,null,NA,audio-button-response,99,253017,0.0-0.0-2.0-97.0,NA,resource/audio/predator_TR.mp3,null,NA,NA
data_2025-03-31-00-28-23_ekua4rds4u,null,NA,audio-button-response,100,256067,0.0-0.0-2.0-98.0,NA,resource/audio/predator_NZ.mp3,null,NA,NA
data_2025-03-31-00-28-23_ekua4rds4u,810.2999999821186,NA,audio-button-response,101,257139,0.0-0.0-2.0-99.0,NA,resource/audio/blank.mp3,0,"predator_TR.mp3,predator_NZ.mp3",NA
data_2025-03-31-00-28-23_ekua4rds4u,377.19999998807907,NA,instructions,102,257772,0.0-0.0-2.0-100.0,"[{""page_index"":0,""viewing_time"":377.09999999403954}]",NA,NA,NA,NA
data_2025-03-31-00-28-23_ekua4rds4u,null,NA,audio-button-response,103,260228,0.0-0.0-2.0-101.0,NA,resource/audio/diamond_US.mp3,null,NA,NA
data_2025-03-31-00-28-23_ekua4rds4u,null,NA,audio-button-response,104,262382,0.0-0.0-2.0-102.0,NA,resource/audio/diamond_TR.mp3,null,NA,NA
data_2025-03-31-00-28-23_ekua4rds4u,null,NA,audio-button-response,105,266990,0.0-0.0-2.0-103.0,NA,resource/audio/diamond_NZ.mp3,null,NA,NA
data_2025-03-31-00-28-23_ekua4rds4u,480.90000000596046,NA,audio-button-response,106,267723,0.0-0.0-2.0-104.0,NA,resource/audio/blank.mp3,0,"diamond_TR.mp3,diamond_NZ.mp3",NA
data_2025-03-31-00-28-23_ekua4rds4u,1686.7000000178814,NA,instructions,107,269662,0.0-0.0-2.0-105.0,"[{""page_index"":0,""viewing_time"":1686.5999999940395}]",NA,NA,NA,NA
data_2025-03-31-00-28-23_ekua4rds4u,null,NA,audio-button-response,108,272325,0.0-0.0-2.0-106.0,NA,resource/audio/possum_US.mp3,null,NA,NA
data_2025-03-31-00-28-23_ekua4rds4u,null,NA,audio-button-response,109,275332,0.0-0.0-2.0-107.0,NA,resource/audio/possum_NZ.mp3,null,NA,NA
data_2025-03-31-00-28-23_ekua4rds4u,null,NA,audio-button-response,110,276442,0.0-0.0-2.0-108.0,NA,resource/audio/possum_TR.mp3,null,NA,NA
data_2025-03-31-00-28-23_ekua4rds4u,836.8000000119209,NA,audio-button-response,111,277538,0.0-0.0-2.0-109.0,NA,resource/audio/blank.mp3,0,"possum_NZ.mp3,possum_TR.mp3",NA
data_2025-03-31-00-28-23_ekua4rds4u,830.1999999880791,NA,instructions,112,278618,0.0-0.0-2.0-110.0,"[{""page_index"":0,""viewing_time"":830.0999999940395}]",NA,NA,NA,NA
data_2025-03-31-00-28-23_ekua4rds4u,null,NA,audio-button-response,113,281071,0.0-0.0-2.0-111.0,NA,resource/audio/salmon_US.mp3,null,NA,NA
data_2025-03-31-00-28-23_ekua4rds4u,null,NA,audio-button-response,114,283674,0.0-0.0-2.0-112.0,NA,resource/audio/salmon_TR.mp3,null,NA,NA
data_2025-03-31-00-28-23_ekua4rds4u,null,NA,audio-button-response,115,287151,0.0-0.0-2.0-113.0,NA,resource/audio/salmon_NZ.mp3,null,NA,NA
data_2025-03-31-00-28-23_ekua4rds4u,548.4000000059605,NA,audio-button-response,116,287954,0.0-0.0-2.0-114.0,NA,resource/audio/blank.mp3,1,"salmon_TR.mp3,salmon_NZ.mp3",NA
data_2025-03-31-00-28-23_ekua4rds4u,928.0999999940395,NA,instructions,117,289136,0.0-0.0-2.0-115.0,"[{""page_index"":0,""viewing_time"":928}]",NA,NA,NA,NA
data_2025-03-31-00-28-23_ekua4rds4u,null,NA,audio-button-response,118,292762,0.0-0.0-2.0-116.0,NA,resource/audio/rabbit_US.mp3,null,NA,NA
data_2025-03-31-00-28-23_ekua4rds4u,null,NA,audio-button-response,119,295003,0.0-0.0-2.0-117.0,NA,resource/audio/rabbit_TR.mp3,null,NA,NA
data_2025-03-31-00-28-23_ekua4rds4u,null,NA,audio-button-response,120,299013,0.0-0.0-2.0-118.0,NA,resource/audio/rabbit_NZ.mp3,null,NA,NA
data_2025-03-31-00-28-23_ekua4rds4u,472.40000000596046,NA,audio-button-response,121,299737,0.0-0.0-2.0-119.0,NA,resource/audio/blank.mp3,0,"rabbit_TR.mp3,rabbit_NZ.mp3",NA
data_2025-03-31-00-28-23_ekua4rds4u,679.5,NA,instructions,122,300667,0.0-0.0-2.0-120.0,"[{""page_index"":0,""viewing_time"":679.4000000059605}]",NA,NA,NA,NA
data_2025-03-31-00-28-23_ekua4rds4u,null,NA,audio-button-response,123,303238,0.0-0.0-2.0-121.0,NA,resource/audio/grapefruit_US.mp3,null,NA,NA
data_2025-03-31-00-28-23_ekua4rds4u,null,NA,audio-button-response,124,306395,0.0-0.0-2.0-122.0,NA,resource/audio/grapefruit_NZ.mp3,null,NA,NA
data_2025-03-31-00-28-23_ekua4rds4u,null,NA,audio-button-response,125,308998,0.0-0.0-2.0-123.0,NA,resource/audio/grapefruit_TR.mp3,null,NA,NA
data_2025-03-31-00-28-23_ekua4rds4u,536.3000000119209,NA,audio-button-response,126,309798,0.0-0.0-2.0-124.0,NA,resource/audio/blank.mp3,0,"grapefruit_NZ.mp3,grapefruit_TR.mp3",NA
data_2025-03-31-00-28-23_ekua4rds4u,607.3000000119209,NA,instructions,127,310663,0.0-0.0-2.0-125.0,"[{""page_index"":0,""viewing_time"":607.1000000238419}]",NA,NA,NA,NA
data_2025-03-31-00-28-23_ekua4rds4u,null,NA,audio-button-response,128,313756,0.0-0.0-2.0-126.0,NA,resource/audio/cinnamon_US.mp3,null,NA,NA
data_2025-03-31-00-28-23_ekua4rds4u,null,NA,audio-button-response,129,316870,0.0-0.0-2.0-127.0,NA,resource/audio/cinnamon_NZ.mp3,null,NA,NA
data_2025-03-31-00-28-23_ekua4rds4u,null,NA,audio-button-response,130,318790,0.0-0.0-2.0-128.0,NA,resource/audio/cinnamon_TR.mp3,null,NA,NA
data_2025-03-31-00-28-23_ekua4rds4u,296.09999999403954,NA,audio-button-response,131,319342,0.0-0.0-2.0-129.0,NA,resource/audio/blank.mp3,1,"cinnamon_NZ.mp3,cinnamon_TR.mp3",NA
data_2025-03-31-00-28-23_ekua4rds4u,492.5,NA,instructions,132,320086,0.0-0.0-2.0-130.0,"[{""page_index"":0,""viewing_time"":492.40000000596046}]",NA,NA,NA,NA
data_2025-03-31-00-28-23_ekua4rds4u,null,NA,audio-button-response,133,322182,0.0-0.0-2.0-131.0,NA,resource/audio/folder_US.mp3,null,NA,NA
data_2025-03-31-00-28-23_ekua4rds4u,null,NA,audio-button-response,134,324976,0.0-0.0-2.0-132.0,NA,resource/audio/folder_NZ.mp3,null,NA,NA
data_2025-03-31-00-28-23_ekua4rds4u,null,NA,audio-button-response,135,327303,0.0-0.0-2.0-133.0,NA,resource/audio/folder_TR.mp3,null,NA,NA
data_2025-03-31-00-28-23_ekua4rds4u,4524.199999988079,NA,audio-button-response,136,332078,0.0-0.0-2.0-134.0,NA,resource/audio/blank.mp3,0,"folder_NZ.mp3,folder_TR.mp3",NA
data_2025-03-31-00-28-23_ekua4rds4u,2374.300000011921,NA,instructions,137,334717,0.0-0.0-2.0-135.0,"[{""page_index"":0,""viewing_time"":2374.2000000178814}]",NA,NA,NA,NA
data_2025-03-31-00-28-23_ekua4rds4u,null,NA,audio-button-response,138,337639,0.0-0.0-2.0-136.0,NA,resource/audio/uranium_US.mp3,null,NA,NA
data_2025-03-31-00-28-23_ekua4rds4u,null,NA,audio-button-response,139,339697,0.0-0.0-2.0-137.0,NA,resource/audio/uranium_TR.mp3,null,NA,NA
data_2025-03-31-00-28-23_ekua4rds4u,null,NA,audio-button-response,140,343441,0.0-0.0-2.0-138.0,NA,resource/audio/uranium_NZ.mp3,null,NA,NA
data_2025-03-31-00-28-23_ekua4rds4u,6906.399999976158,NA,audio-button-response,141,350599,0.0-0.0-2.0-139.0,NA,resource/audio/blank.mp3,0,"uranium_TR.mp3,uranium_NZ.mp3",NA
data_2025-03-31-00-28-23_ekua4rds4u,624.4000000059605,NA,instructions,142,351486,0.0-0.0-2.0-140.0,"[{""page_index"":0,""viewing_time"":624.2999999821186}]",NA,NA,NA,NA
data_2025-03-31-00-28-23_ekua4rds4u,null,NA,audio-button-response,143,354300,0.0-0.0-2.0-141.0,NA,resource/audio/monkey_US.mp3,null,NA,NA
data_2025-03-31-00-28-23_ekua4rds4u,null,NA,audio-button-response,144,356700,0.0-0.0-2.0-142.0,NA,resource/audio/monkey_TR.mp3,null,NA,NA
data_2025-03-31-00-28-23_ekua4rds4u,null,NA,audio-button-response,145,359378,0.0-0.0-2.0-143.0,NA,resource/audio/monkey_NZ.mp3,null,NA,NA
data_2025-03-31-00-28-23_ekua4rds4u,460.89999997615814,NA,audio-button-response,146,360094,0.0-0.0-2.0-144.0,NA,resource/audio/blank.mp3,1,"monkey_TR.mp3,monkey_NZ.mp3",NA
data_2025-03-31-00-28-23_ekua4rds4u,678,NA,instructions,147,361023,0.0-0.0-2.0-145.0,"[{""page_index"":0,""viewing_time"":677.8999999761581}]",NA,NA,NA,NA
data_2025-03-31-00-28-23_ekua4rds4u,null,NA,audio-button-response,148,363645,0.0-0.0-2.0-146.0,NA,resource/audio/camel_US.mp3,null,NA,NA
data_2025-03-31-00-28-23_ekua4rds4u,null,NA,audio-button-response,149,366717,0.0-0.0-2.0-147.0,NA,resource/audio/camel_NZ.mp3,null,NA,NA
data_2025-03-31-00-28-23_ekua4rds4u,null,NA,audio-button-response,150,369394,0.0-0.0-2.0-148.0,NA,resource/audio/camel_TR.mp3,null,NA,NA
data_2025-03-31-00-28-23_ekua4rds4u,3792.4000000059605,NA,audio-button-response,151,373440,0.0-0.0-2.0-149.0,NA,resource/audio/blank.mp3,0,"camel_NZ.mp3,camel_TR.mp3",NA
data_2025-03-31-00-28-23_ekua4rds4u,2123.699999988079,NA,html-keyboard-response,152,375814,0.0-0.0-3.0,NA,All done! Press the space button before exiting this window!,NA,NA,32
