file_id,rt,responses,trial_type,trial_index,time_elapsed,internal_node_id,view_history,stimulus,button_pressed,speakers,key_press
data_2025-03-31-11-07-46.792371_a42g9a20md,4684,"{""Participant ID"":""test""}",survey-text,0,4702,0.0-0.0-0.0-0.0,NA,NA,NA,NA,NA
data_2025-03-31-11-07-46.792371_a42g9a20md,9610,NA,instructions,1,14312,0.0-0.0-1.0,"[{""page_index"":0,""viewing_time"":9609}]",NA,NA,NA,NA
data_2025-03-31-11-07-46.792371_a42g9a20md,4949,NA,instructions,2,19512,0.0-0.0-2.0-0.0,"[{""page_index"":0,""viewing_time"":4949}]",NA,NA,NA,NA
data_2025-03-31-11-07-46.792371_a42g9a20md,null,NA,audio-button-response,3,22130,0.0-0.0-2.0-1.0,NA,resource/audio/camel_US.mp3,null,NA,NA
data_2025-03-31-11-07-46.792371_a42g9a20md,null,NA,audio-button-response,4,24797,0.0-0.0-2.0-2.0,NA,resource/audio/camel_TR.mp3,null,NA,NA
data_2025-03-31-11-07-46.792371_a42g9a20md,null,NA,audio-button-response,5,27838,0.0-0.0-2.0-3.0,NA,resource/audio/camel_NZ.mp3,null,NA,NA
data_2025-03-31-11-07-46.792371_a42g9a20md,4417.000000000007,NA,audio-button-response,6,32438,0.0-0.0-2.0-4.0,NA,resource/audio/blank.mp3,1,"camel_TR.mp3,camel_NZ.mp3",NA
data_2025-03-31-11-07-46.792371_a42g9a20md,1919,NA,instructions,7,34609,0.0-0.0-2.0-5.0,"[{""page_index"":0,""viewing_time"":1919}]",NA,NA,NA,NA
data_2025-03-31-11-07-46.792371_a42g9a20md,null,NA,audio-button-response,8,36677,0.0-0.0-2.0-6.0,NA,resource/audio/folder_US.mp3,null,NA,NA
data_2025-03-31-11-07-46.792371_a42g9a20md,null,NA,audio-button-response,9,39438,0.0-0.0-2.0-7.0,NA,resource/audio/folder_NZ.mp3,null,NA,NA
data_2025-03-31-11-07-46.792371_a42g9a20md,1632,NA,audio-button-response,10,41742,0.0-0.0-2.0-8.0,NA,resource/audio/folder_TR.mp3,0,NA,NA
data_2025-03-31-11-07-46.792371_a42g9a20md,1151,NA,audio-button-response,11,43146,0.0-0.0-2.0-9.0,NA,resource/audio/blank.mp3,1,"folder_NZ.mp3,folder_TR.mp3",NA
data_2025-03-31-11-07-46.792371_a42g9a20md,2624,NA,instructions,12,46021,0.0-0.0-2.0-10.0,"[{""page_index"":0,""viewing_time"":2623}]",NA,NA,NA,NA
data_2025-03-31-11-07-46.792371_a42g9a20md,null,NA,audio-button-response,13,48451,0.0-0.0-2.0-11.0,NA,resource/audio/diamond_US.mp3,null,NA,NA
data_2025-03-31-11-07-46.792371_a42g9a20md,null,NA,audio-button-response,14,53035,0.0-0.0-2.0-12.0,NA,resource/audio/diamond_NZ.mp3,null,NA,NA
data_2025-03-31-11-07-46.792371_a42g9a20md,null,NA,audio-button-response,15,55171,0.0-0.0-2.0-13.0,NA,resource/audio/diamond_TR.mp3,null,NA,NA
data_2025-03-31-11-07-46.792371_a42g9a20md,1187.0000000000073,NA,audio-button-response,16,56611,0.0-0.0-2.0-14.0,NA,resource/audio/blank.mp3,0,"diamond_NZ.mp3,diamond_TR.mp3",NA
data_2025-03-31-11-07-46.792371_a42g9a20md,1658,NA,instructions,17,58520,0.0-0.0-2.0-15.0,"[{""page_index"":0,""viewing_time"":1658}]",NA,NA,NA,NA
data_2025-03-31-11-07-46.792371_a42g9a20md,null,NA,audio-button-response,18,62260,0.0-0.0-2.0-16.0,NA,resource/audio/ferret_US.mp3,null,NA,NA
data_2025-03-31-11-07-46.792371_a42g9a20md,null,NA,audio-button-response,19,65480,0.0-0.0-2.0-17.0,NA,resource/audio/ferret_NZ.mp3,null,NA,NA
data_2025-03-31-11-07-46.792371_a42g9a20md,null,NA,audio-button-response,20,66755,0.0-0.0-2.0-18.0,NA,resource/audio/ferret_TR.mp3,null,NA,NA
data_2025-03-31-11-07-46.792371_a42g9a20md,1046,NA,audio-button-response,21,68053,0.0-0.0-2.0-19.0,NA,resource/audio/blank.mp3,1,"ferret_NZ.mp3,ferret_TR.mp3",NA
data_2025-03-31-11-07-46.792371_a42g9a20md,1305.0000000000146,NA,instructions,22,69608,0.0-0.0-2.0-20.0,"[{""page_index"":0,""viewing_time"":1305.0000000000146}]",NA,NA,NA,NA
data_2025-03-31-11-07-46.792371_a42g9a20md,null,NA,audio-button-response,23,72515,0.0-0.0-2.0-21.0,NA,resource/audio/donkey_US.mp3,null,NA,NA
data_2025-03-31-11-07-46.792371_a42g9a20md,null,NA,audio-button-response,24,76367,0.0-0.0-2.0-22.0,NA,resource/audio/donkey_NZ.mp3,null,NA,NA
data_2025-03-31-11-07-46.792371_a42g9a20md,null,NA,audio-button-response,25,77356,0.0-0.0-2.0-23.0,NA,resource/audio/donkey_TR.mp3,null,NA,NA
data_2025-03-31-11-07-46.792371_a42g9a20md,1739,NA,audio-button-response,26,79349,0.0-0.0-2.0-24.0,NA,resource/audio/blank.mp3,0,"donkey_NZ.mp3,donkey_TR.mp3",NA
data_2025-03-31-11-07-46.792371_a42g9a20md,883,NA,instructions,27,80484,0.0-0.0-2.0-25.0,"[{""page_index"":0,""viewing_time"":883}]",NA,NA,NA,NA
data_2025-03-31-11-07-46.792371_a42g9a20md,null,NA,audio-button-response,28,84264,0.0-0.0-2.0-26.0,NA,resource/audio/critter_US.mp3,null,NA,NA
data_2025-03-31-11-07-46.792371_a42g9a20md,null,NA,audio-button-response,29,87559,0.0-0.0-2.0-27.0,NA,resource/audio/critter_NZ.mp3,null,NA,NA
data_2025-03-31-11-07-46.792371_a42g9a20md,null,NA,audio-button-response,30,88809,0.0-0.0-2.0-28.0,NA,resource/audio/critter_TR.mp3,null,NA,NA
data_2025-03-31-11-07-46.792371_a42g9a20md,1915,NA,audio-button-response,31,90976,0.0-0.0-2.0-29.0,NA,resource/audio/blank.mp3,0,"critter_NZ.mp3,critter_TR.mp3",NA
data_2025-03-31-11-07-46.792371_a42g9a20md,1236,NA,instructions,32,92464,0.0-0.0-2.0-30.0,"[{""page_index"":0,""viewing_time"":1236}]",NA,NA,NA,NA
data_2025-03-31-11-07-46.792371_a42g9a20md,null,NA,audio-button-response,33,95247,0.0-0.0-2.0-31.0,NA,resource/audio/plaster_US.mp3,null,NA,NA
data_2025-03-31-11-07-46.792371_a42g9a20md,null,NA,audio-button-response,34,97142,0.0-0.0-2.0-32.0,NA,resource/audio/plaster_TR.mp3,null,NA,NA
data_2025-03-31-11-07-46.792371_a42g9a20md,3744,NA,audio-button-response,35,101906,0.0-0.0-2.0-33.0,NA,resource/audio/plaster_NZ.mp3,0,NA,NA
data_2025-03-31-11-07-46.792371_a42g9a20md,676.0000000000146,NA,audio-button-response,36,102834,0.0-0.0-2.0-34.0,NA,resource/audio/blank.mp3,0,"plaster_TR.mp3,plaster_NZ.mp3",NA
data_2025-03-31-11-07-46.792371_a42g9a20md,1274,NA,instructions,37,104360,0.0-0.0-2.0-35.0,"[{""page_index"":0,""viewing_time"":1274}]",NA,NA,NA,NA
data_2025-03-31-11-07-46.792371_a42g9a20md,null,NA,audio-button-response,38,107548,0.0-0.0-2.0-36.0,NA,resource/audio/tiger_US.mp3,null,NA,NA
data_2025-03-31-11-07-46.792371_a42g9a20md,null,NA,audio-button-response,39,109784,0.0-0.0-2.0-37.0,NA,resource/audio/tiger_TR.mp3,null,NA,NA
data_2025-03-31-11-07-46.792371_a42g9a20md,null,NA,audio-button-response,40,112842,0.0-0.0-2.0-38.0,NA,resource/audio/tiger_NZ.mp3,null,NA,NA
data_2025-03-31-11-07-46.792371_a42g9a20md,1233,NA,audio-button-response,41,114327,0.0-0.0-2.0-39.0,NA,resource/audio/blank.mp3,0,"tiger_TR.mp3,tiger_NZ.mp3",NA
data_2025-03-31-11-07-46.792371_a42g9a20md,1496,NA,instructions,42,116075,0.0-0.0-2.0-40.0,"[{""page_index"":0,""viewing_time"":1496}]",NA,NA,NA,NA
data_2025-03-31-11-07-46.792371_a42g9a20md,null,NA,audio-button-response,43,119143,0.0-0.0-2.0-41.0,NA,resource/audio/racquetball_US.mp3,null,NA,NA
data_2025-03-31-11-07-46.792371_a42g9a20md,null,NA,audio-button-response,44,122570,0.0-0.0-2.0-42.0,NA,resource/audio/racquetball_NZ.mp3,null,NA,NA
data_2025-03-31-11-07-46.792371_a42g9a20md,null,NA,audio-button-response,45,124491,0.0-0.0-2.0-43.0,NA,resource/audio/racquetball_TR.mp3,null,NA,NA
data_2025-03-31-11-07-46.792371_a42g9a20md,920.9999999999854,NA,audio-button-response,46,125664,0.0-0.0-2.0-44.0,NA,resource/audio/blank.mp3,0,"racquetball_NZ.mp3,racquetball_TR.mp3",NA
data_2025-03-31-11-07-46.792371_a42g9a20md,1449.0000000000146,NA,instructions,47,127364,0.0-0.0-2.0-45.0,"[{""page_index"":0,""viewing_time"":1449.0000000000146}]",NA,NA,NA,NA
data_2025-03-31-11-07-46.792371_a42g9a20md,null,NA,audio-button-response,48,130022,0.0-0.0-2.0-46.0,NA,resource/audio/elephant_US.mp3,null,NA,NA
data_2025-03-31-11-07-46.792371_a42g9a20md,null,NA,audio-button-response,49,132282,0.0-0.0-2.0-47.0,NA,resource/audio/elephant_TR.mp3,null,NA,NA
data_2025-03-31-11-07-46.792371_a42g9a20md,2085,NA,audio-button-response,50,135308,0.0-0.0-2.0-48.0,NA,resource/audio/elephant_NZ.mp3,0,NA,NA
data_2025-03-31-11-07-46.792371_a42g9a20md,1270,NA,audio-button-response,51,136830,0.0-0.0-2.0-49.0,NA,resource/audio/blank.mp3,1,"elephant_TR.mp3,elephant_NZ.mp3",NA
data_2025-03-31-11-07-46.792371_a42g9a20md,1162,NA,instructions,52,138243,0.0-0.0-2.0-50.0,"[{""page_index"":0,""viewing_time"":1162}]",NA,NA,NA,NA
data_2025-03-31-11-07-46.792371_a42g9a20md,null,NA,audio-button-response,53,141650,0.0-0.0-2.0-51.0,NA,resource/audio/eyeliner_US.mp3,null,NA,NA
data_2025-03-31-11-07-46.792371_a42g9a20md,null,NA,audio-button-response,54,143495,0.0-0.0-2.0-52.0,NA,resource/audio/eyeliner_TR.mp3,null,NA,NA
data_2025-03-31-11-07-46.792371_a42g9a20md,null,NA,audio-button-response,55,147388,0.0-0.0-2.0-53.0,NA,resource/audio/eyeliner_NZ.mp3,null,NA,NA
data_2025-03-31-11-07-46.792371_a42g9a20md,1472,NA,audio-button-response,56,149112,0.0-0.0-2.0-54.0,NA,resource/audio/blank.mp3,1,"eyeliner_TR.mp3,eyeliner_NZ.mp3",NA
data_2025-03-31-11-07-46.792371_a42g9a20md,1848,NA,instructions,57,151211,0.0-0.0-2.0-55.0,"[{""page_index"":0,""viewing_time"":1848}]",NA,NA,NA,NA
data_2025-03-31-11-07-46.792371_a42g9a20md,null,NA,audio-button-response,58,153754,0.0-0.0-2.0-56.0,NA,resource/audio/syringe_US.mp3,null,NA,NA
data_2025-03-31-11-07-46.792371_a42g9a20md,null,NA,audio-button-response,59,156063,0.0-0.0-2.0-57.0,NA,resource/audio/syringe_TR.mp3,null,NA,NA
data_2025-03-31-11-07-46.792371_a42g9a20md,null,NA,audio-button-response,60,159724,0.0-0.0-2.0-58.0,NA,resource/audio/syringe_NZ.mp3,null,NA,NA
data_2025-03-31-11-07-46.792371_a42g9a20md,990.0000000000291,NA,audio-button-response,61,160966,0.0-0.0-2.0-59.0,NA,resource/audio/blank.mp3,1,"syringe_TR.mp3,syringe_NZ.mp3",NA
data_2025-03-31-11-07-46.792371_a42g9a20md,1530,NA,instructions,62,162747,0.0-0.0-2.0-60.0,"[{""page_index"":0,""viewing_time"":1530}]",NA,NA,NA,NA
data_2025-03-31-11-07-46.792371_a42g9a20md,null,NA,audio-button-response,63,165363,0.0-0.0-2.0-61.0,NA,resource/audio/panda_US.mp3,null,NA,NA
data_2025-03-31-11-07-46.792371_a42g9a20md,null,NA,audio-button-response,64,166516,0.0-0.0-2.0-62.0,NA,resource/audio/panda_TR.mp3,null,NA,NA
data_2025-03-31-11-07-46.792371_a42g9a20md,null,NA,audio-button-response,65,169451,0.0-0.0-2.0-63.0,NA,resource/audio/panda_NZ.mp3,null,NA,NA
data_2025-03-31-11-07-46.792371_a42g9a20md,1220,NA,audio-button-response,66,170922,0.0-0.0-2.0-64.0,NA,resource/audio/blank.mp3,1,"panda_TR.mp3,panda_NZ.mp3",NA
data_2025-03-31-11-07-46.792371_a42g9a20md,958,NA,instructions,67,172131,0.0-0.0-2.0-65.0,"[{""page_index"":0,""viewing_time"":958}]",NA,NA,NA,NA
data_2025-03-31-11-07-46.792371_a42g9a20md,null,NA,audio-button-response,68,175016,0.0-0.0-2.0-66.0,NA,resource/audio/predator_US.mp3,null,NA,NA
data_2025-03-31-11-07-46.792371_a42g9a20md,null,NA,audio-button-response,69,178028,0.0-0.0-2.0-67.0,NA,resource/audio/predator_NZ.mp3,null,NA,NA
data_2025-03-31-11-07-46.792371_a42g9a20md,null,NA,audio-button-response,70,179326,0.0-0.0-2.0-68.0,NA,resource/audio/predator_TR.mp3,null,NA,NA
data_2025-03-31-11-07-46.792371_a42g9a20md,1041,NA,audio-button-response,71,180619,0.0-0.0-2.0-69.0,NA,resource/audio/blank.mp3,1,"predator_NZ.mp3,predator_TR.mp3",NA
data_2025-03-31-11-07-46.792371_a42g9a20md,1351.000000000029,NA,instructions,72,182221,0.0-0.0-2.0-70.0,"[{""page_index"":0,""viewing_time"":1350}]",NA,NA,NA,NA
data_2025-03-31-11-07-46.792371_a42g9a20md,null,NA,audio-button-response,73,185037,0.0-0.0-2.0-71.0,NA,resource/audio/scrapbook_US.mp3,null,NA,NA
data_2025-03-31-11-07-46.792371_a42g9a20md,null,NA,audio-button-response,74,186961,0.0-0.0-2.0-72.0,NA,resource/audio/scrapbook_TR.mp3,null,NA,NA
data_2025-03-31-11-07-46.792371_a42g9a20md,null,NA,audio-button-response,75,189891,0.0-0.0-2.0-73.0,NA,resource/audio/scrapbook_NZ.mp3,null,NA,NA
data_2025-03-31-11-07-46.792371_a42g9a20md,786.0000000000291,NA,audio-button-response,76,190930,0.0-0.0-2.0-74.0,NA,resource/audio/blank.mp3,0,"scrapbook_TR.mp3,scrapbook_NZ.mp3",NA
data_2025-03-31-11-07-46.792371_a42g9a20md,1229,NA,instructions,77,192410,0.0-0.0-2.0-75.0,"[{""page_index"":0,""viewing_time"":1229}]",NA,NA,NA,NA
data_2025-03-31-11-07-46.792371_a42g9a20md,null,NA,audio-button-response,78,194783,0.0-0.0-2.0-76.0,NA,resource/audio/duffle_US.mp3,null,NA,NA
data_2025-03-31-11-07-46.792371_a42g9a20md,null,NA,audio-button-response,79,197734,0.0-0.0-2.0-77.0,NA,resource/audio/duffle_NZ.mp3,null,NA,NA
data_2025-03-31-11-07-46.792371_a42g9a20md,null,NA,audio-button-response,80,199633,0.0-0.0-2.0-78.0,NA,resource/audio/duffle_TR.mp3,null,NA,NA
data_2025-03-31-11-07-46.792371_a42g9a20md,695,NA,audio-button-response,81,200580,0.0-0.0-2.0-79.0,NA,resource/audio/blank.mp3,0,"duffle_NZ.mp3,duffle_TR.mp3",NA
data_2025-03-31-11-07-46.792371_a42g9a20md,1063,NA,instructions,82,201894,0.0-0.0-2.0-80.0,"[{""page_index"":0,""viewing_time"":1063}]",NA,NA,NA,NA
data_2025-03-31-11-07-46.792371_a42g9a20md,null,NA,audio-button-response,83,204370,0.0-0.0-2.0-81.0,NA,resource/audio/telegraph_US.mp3,null,NA,NA
data_2025-03-31-11-07-46.792371_a42g9a20md,null,NA,audio-button-response,84,207603,0.0-0.0-2.0-82.0,NA,resource/audio/telegraph_NZ.mp3,null,NA,NA
data_2025-03-31-11-07-46.792371_a42g9a20md,null,NA,audio-button-response,85,210176,0.0-0.0-2.0-83.0,NA,resource/audio/telegraph_TR.mp3,null,NA,NA
data_2025-03-31-11-07-46.792371_a42g9a20md,1396,NA,audio-button-response,86,211825,0.0-0.0-2.0-84.0,NA,resource/audio/blank.mp3,1,"telegraph_NZ.mp3,telegraph_TR.mp3",NA
data_2025-03-31-11-07-46.792371_a42g9a20md,4842.000000000029,NA,instructions,87,216917,0.0-0.0-2.0-85.0,"[{""page_index"":0,""viewing_time"":4842.000000000029}]",NA,NA,NA,NA
data_2025-03-31-11-07-46.792371_a42g9a20md,null,NA,audio-button-response,88,219751,0.0-0.0-2.0-86.0,NA,resource/audio/kangaroo_US.mp3,null,NA,NA
data_2025-03-31-11-07-46.792371_a42g9a20md,null,NA,audio-button-response,89,221053,0.0-0.0-2.0-87.0,NA,resource/audio/kangaroo_TR.mp3,null,NA,NA
data_2025-03-31-11-07-46.792371_a42g9a20md,null,NA,audio-button-response,90,224425,0.0-0.0-2.0-88.0,NA,resource/audio/kangaroo_NZ.mp3,null,NA,NA
data_2025-03-31-11-07-46.792371_a42g9a20md,840,NA,audio-button-response,91,225517,0.0-0.0-2.0-89.0,NA,resource/audio/blank.mp3,1,"kangaroo_TR.mp3,kangaroo_NZ.mp3",NA
data_2025-03-31-11-07-46.792371_a42g9a20md,1094,NA,instructions,92,226862,0.0-0.0-2.0-90.0,"[{""page_index"":0,""viewing_time"":1094}]",NA,NA,NA,NA
data_2025-03-31-11-07-46.792371_a42g9a20md,null,NA,audio-button-response,93,230218,0.0-0.0-2.0-91.0,NA,resource/audio/shellfish_US.mp3,null,NA,NA
data_2025-03-31-11-07-46.792371_a42g9a20md,null,NA,audio-button-response,94,231542,0.0-0.0-2.0-92.0,NA,resource/audio/shellfish_TR.mp3,null,NA,NA
data_2025-03-31-11-07-46.792371_a42g9a20md,null,NA,audio-button-response,95,234462,0.0-0.0-2.0-93.0,NA,resource/audio/shellfish_NZ.mp3,null,NA,NA
data_2025-03-31-11-07-46.792371_a42g9a20md,990,NA,audio-button-response,96,235704,0.0-0.0-2.0-94.0,NA,resource/audio/blank.mp3,1,"shellfish_TR.mp3,shellfish_NZ.mp3",NA
data_2025-03-31-11-07-46.792371_a42g9a20md,4310,NA,instructions,97,240266,0.0-0.0-2.0-95.0,"[{""page_index"":0,""viewing_time"":4310}]",NA,NA,NA,NA
data_2025-03-31-11-07-46.792371_a42g9a20md,null,NA,audio-button-response,98,242354,0.0-0.0-2.0-96.0,NA,resource/audio/washer_US.mp3,null,NA,NA
data_2025-03-31-11-07-46.792371_a42g9a20md,null,NA,audio-button-response,99,244637,0.0-0.0-2.0-97.0,NA,resource/audio/washer_TR.mp3,null,NA,NA
data_2025-03-31-11-07-46.792371_a42g9a20md,null,NA,audio-button-response,100,247837,0.0-0.0-2.0-98.0,NA,resource/audio/washer_NZ.mp3,null,NA,NA
data_2025-03-31-11-07-46.792371_a42g9a20md,659,NA,audio-button-response,101,248748,0.0-0.0-2.0-99.0,NA,resource/audio/blank.mp3,0,"washer_TR.mp3,washer_NZ.mp3",NA
data_2025-03-31-11-07-46.792371_a42g9a20md,1047,NA,instructions,102,250046,0.0-0.0-2.0-100.0,"[{""page_index"":0,""viewing_time"":1047}]",NA,NA,NA,NA
data_2025-03-31-11-07-46.792371_a42g9a20md,null,NA,audio-button-response,103,253625,0.0-0.0-2.0-101.0,NA,resource/audio/catfish_US.mp3,null,NA,NA
data_2025-03-31-11-07-46.792371_a42g9a20md,null,NA,audio-button-response,104,256740,0.0-0.0-2.0-102.0,NA,resource/audio/catfish_NZ.mp3,null,NA,NA
data_2025-03-31-11-07-46.792371_a42g9a20md,null,NA,audio-button-response,105,258208,0.0-0.0-2.0-103.0,NA,resource/audio/catfish_TR.mp3,null,NA,NA
data_2025-03-31-11-07-46.792371_a42g9a20md,1045.999999999971,NA,audio-button-response,106,259505,0.0-0.0-2.0-104.0,NA,resource/audio/blank.mp3,1,"catfish_NZ.mp3,catfish_TR.mp3",NA
data_2025-03-31-11-07-46.792371_a42g9a20md,881,NA,instructions,107,260637,0.0-0.0-2.0-105.0,"[{""page_index"":0,""viewing_time"":881}]",NA,NA,NA,NA
data_2025-03-31-11-07-46.792371_a42g9a20md,null,NA,audio-button-response,108,264146,0.0-0.0-2.0-106.0,NA,resource/audio/fiance_US.mp3,null,NA,NA
data_2025-03-31-11-07-46.792371_a42g9a20md,null,NA,audio-button-response,109,268266,0.0-0.0-2.0-107.0,NA,resource/audio/fiance_NZ.mp3,null,NA,NA
data_2025-03-31-11-07-46.792371_a42g9a20md,null,NA,audio-button-response,110,269685,0.0-0.0-2.0-108.0,NA,resource/audio/fiance_TR.mp3,null,NA,NA
data_2025-03-31-11-07-46.792371_a42g9a20md,1006.9999999999418,NA,audio-button-response,111,270945,0.0-0.0-2.0-109.0,NA,resource/audio/blank.mp3,1,"fiance_NZ.mp3,fiance_TR.mp3",NA
data_2025-03-31-11-07-46.792371_a42g9a20md,3490,NA,instructions,112,274685,0.0-0.0-2.0-110.0,"[{""page_index"":0,""viewing_time"":3490}]",NA,NA,NA,NA
data_2025-03-31-11-07-46.792371_a42g9a20md,null,NA,audio-button-response,113,276944,0.0-0.0-2.0-111.0,NA,resource/audio/manicure_US.mp3,null,NA,NA
data_2025-03-31-11-07-46.792371_a42g9a20md,null,NA,audio-button-response,114,279658,0.0-0.0-2.0-112.0,NA,resource/audio/manicure_NZ.mp3,null,NA,NA
data_2025-03-31-11-07-46.792371_a42g9a20md,null,NA,audio-button-response,115,281650,0.0-0.0-2.0-113.0,NA,resource/audio/manicure_TR.mp3,null,NA,NA
data_2025-03-31-11-07-46.792371_a42g9a20md,726,NA,audio-button-response,116,282629,0.0-0.0-2.0-114.0,NA,resource/audio/blank.mp3,1,"manicure_NZ.mp3,manicure_TR.mp3",NA
data_2025-03-31-11-07-46.792371_a42g9a20md,2261,NA,instructions,117,285141,0.0-0.0-2.0-115.0,"[{""page_index"":0,""viewing_time"":2261}]",NA,NA,NA,NA
data_2025-03-31-11-07-46.792371_a42g9a20md,null,NA,audio-button-response,118,287989,0.0-0.0-2.0-116.0,NA,resource/audio/parrot_US.mp3,null,NA,NA
data_2025-03-31-11-07-46.792371_a42g9a20md,null,NA,audio-button-response,119,290515,0.0-0.0-2.0-117.0,NA,resource/audio/parrot_TR.mp3,null,NA,NA
data_2025-03-31-11-07-46.792371_a42g9a20md,null,NA,audio-button-response,120,294335,0.0-0.0-2.0-118.0,NA,resource/audio/parrot_NZ.mp3,null,NA,NA
data_2025-03-31-11-07-46.792371_a42g9a20md,638.9999999999418,NA,audio-button-response,121,295225,0.0-0.0-2.0-119.0,NA,resource/audio/blank.mp3,0,"parrot_TR.mp3,parrot_NZ.mp3",NA
data_2025-03-31-11-07-46.792371_a42g9a20md,960.0000000000582,NA,instructions,122,296437,0.0-0.0-2.0-120.0,"[{""page_index"":0,""viewing_time"":960.0000000000582}]",NA,NA,NA,NA
data_2025-03-31-11-07-46.792371_a42g9a20md,null,NA,audio-button-response,123,298993,0.0-0.0-2.0-121.0,NA,resource/audio/musket_US.mp3,null,NA,NA
data_2025-03-31-11-07-46.792371_a42g9a20md,null,NA,audio-button-response,124,301677,0.0-0.0-2.0-122.0,NA,resource/audio/musket_NZ.mp3,null,NA,NA
data_2025-03-31-11-07-46.792371_a42g9a20md,null,NA,audio-button-response,125,303503,0.0-0.0-2.0-123.0,NA,resource/audio/musket_TR.mp3,null,NA,NA
data_2025-03-31-11-07-46.792371_a42g9a20md,849,NA,audio-button-response,126,304603,0.0-0.0-2.0-124.0,NA,resource/audio/blank.mp3,0,"musket_NZ.mp3,musket_TR.mp3",NA
data_2025-03-31-11-07-46.792371_a42g9a20md,1158,NA,instructions,127,306012,0.0-0.0-2.0-125.0,"[{""page_index"":0,""viewing_time"":1158}]",NA,NA,NA,NA
data_2025-03-31-11-07-46.792371_a42g9a20md,null,NA,audio-button-response,128,309514,0.0-0.0-2.0-126.0,NA,resource/audio/airstrip_US.mp3,null,NA,NA
data_2025-03-31-11-07-46.792371_a42g9a20md,null,NA,audio-button-response,129,312334,0.0-0.0-2.0-127.0,NA,resource/audio/airstrip_NZ.mp3,null,NA,NA
data_2025-03-31-11-07-46.792371_a42g9a20md,null,NA,audio-button-response,130,314306,0.0-0.0-2.0-128.0,NA,resource/audio/airstrip_TR.mp3,null,NA,NA
data_2025-03-31-11-07-46.792371_a42g9a20md,801.9999999999418,NA,audio-button-response,131,315359,0.0-0.0-2.0-129.0,NA,resource/audio/blank.mp3,1,"airstrip_NZ.mp3,airstrip_TR.mp3",NA
data_2025-03-31-11-07-46.792371_a42g9a20md,1601,NA,instructions,132,317211,0.0-0.0-2.0-130.0,"[{""page_index"":0,""viewing_time"":1600.0000000000582}]",NA,NA,NA,NA
data_2025-03-31-11-07-46.792371_a42g9a20md,null,NA,audio-button-response,133,320204,0.0-0.0-2.0-131.0,NA,resource/audio/dynamite_US.mp3,null,NA,NA
data_2025-03-31-11-07-46.792371_a42g9a20md,null,NA,audio-button-response,134,324574,0.0-0.0-2.0-132.0,NA,resource/audio/dynamite_NZ.mp3,null,NA,NA
data_2025-03-31-11-07-46.792371_a42g9a20md,null,NA,audio-button-response,135,326787,0.0-0.0-2.0-133.0,NA,resource/audio/dynamite_TR.mp3,null,NA,NA
data_2025-03-31-11-07-46.792371_a42g9a20md,561,NA,audio-button-response,136,327600,0.0-0.0-2.0-134.0,NA,resource/audio/blank.mp3,1,"dynamite_NZ.mp3,dynamite_TR.mp3",NA
data_2025-03-31-11-07-46.792371_a42g9a20md,1113,NA,instructions,137,328964,0.0-0.0-2.0-135.0,"[{""page_index"":0,""viewing_time"":1112}]",NA,NA,NA,NA
data_2025-03-31-11-07-46.792371_a42g9a20md,null,NA,audio-button-response,138,331542,0.0-0.0-2.0-136.0,NA,resource/audio/grandmother_US.mp3,null,NA,NA
data_2025-03-31-11-07-46.792371_a42g9a20md,null,NA,audio-button-response,139,333081,0.0-0.0-2.0-137.0,NA,resource/audio/grandmother_TR.mp3,null,NA,NA
data_2025-03-31-11-07-46.792371_a42g9a20md,null,NA,audio-button-response,140,335687,0.0-0.0-2.0-138.0,NA,resource/audio/grandmother_NZ.mp3,null,NA,NA
data_2025-03-31-11-07-46.792371_a42g9a20md,882,NA,audio-button-response,141,336822,0.0-0.0-2.0-139.0,NA,resource/audio/blank.mp3,0,"grandmother_TR.mp3,grandmother_NZ.mp3",NA
data_2025-03-31-11-07-46.792371_a42g9a20md,4975.000000000058,NA,instructions,142,342049,0.0-0.0-2.0-140.0,"[{""page_index"":0,""viewing_time"":4975.000000000058}]",NA,NA,NA,NA
data_2025-03-31-11-07-46.792371_a42g9a20md,null,NA,audio-button-response,143,345121,0.0-0.0-2.0-141.0,NA,resource/audio/sunscreen_US.mp3,null,NA,NA
data_2025-03-31-11-07-46.792371_a42g9a20md,null,NA,audio-button-response,144,346663,0.0-0.0-2.0-142.0,NA,resource/audio/sunscreen_TR.mp3,null,NA,NA
data_2025-03-31-11-07-46.792371_a42g9a20md,2818,NA,audio-button-response,145,350430,0.0-0.0-2.0-143.0,NA,resource/audio/sunscreen_NZ.mp3,0,NA,NA
data_2025-03-31-11-07-46.792371_a42g9a20md,1176,NA,audio-button-response,146,351858,0.0-0.0-2.0-144.0,NA,resource/audio/blank.mp3,1,"sunscreen_TR.mp3,sunscreen_NZ.mp3",NA
data_2025-03-31-11-07-46.792371_a42g9a20md,3186.999999999942,NA,instructions,147,355295,0.0-0.0-2.0-145.0,"[{""page_index"":0,""viewing_time"":3185.999999999942}]",NA,NA,NA,NA
data_2025-03-31-11-07-46.792371_a42g9a20md,null,NA,audio-button-response,148,358353,0.0-0.0-2.0-146.0,NA,resource/audio/vocabulary_US.mp3,null,NA,NA
data_2025-03-31-11-07-46.792371_a42g9a20md,null,NA,audio-button-response,149,360012,0.0-0.0-2.0-147.0,NA,resource/audio/vocabulary_TR.mp3,null,NA,NA
data_2025-03-31-11-07-46.792371_a42g9a20md,null,NA,audio-button-response,150,364139,0.0-0.0-2.0-148.0,NA,resource/audio/vocabulary_NZ.mp3,null,NA,NA
data_2025-03-31-11-07-46.792371_a42g9a20md,641.0000000000582,NA,audio-button-response,151,365033,0.0-0.0-2.0-149.0,NA,resource/audio/blank.mp3,1,"vocabulary_TR.mp3,vocabulary_NZ.mp3",NA
data_2025-03-31-11-07-46.792371_a42g9a20md,8416,NA,html-keyboard-response,152,373704,0.0-0.0-3.0,NA,Thank you for your participation! To receive full credit you will be redirected to complete a brief demographic questionnaire. https://utexas.qualtrics.com/jfe/form/SV_es5YLeHNdLkWZ4W,NA,NA,32
