file_id,rt,responses,trial_type,trial_index,time_elapsed,internal_node_id,view_history,stimulus,button_pressed,speakers,key_press
data_2025-04-01-14-32-02.399472_2unck5ncuc,2536,"{""Participant ID"":""test""}",survey-text,0,2620,0.0-0.0-0.0-0.0,NA,NA,NA,NA,NA
data_2025-04-01-14-32-02.399472_2unck5ncuc,3226,NA,instructions,1,5849,0.0-0.0-1.0,"[{""page_index"":0,""viewing_time"":3225}]",NA,NA,NA,NA
data_2025-04-01-14-32-02.399472_2unck5ncuc,1676.0000000000018,NA,instructions,2,7777,0.0-0.0-2.0-0.0,"[{""page_index"":0,""viewing_time"":1676.0000000000018}]",NA,NA,NA,NA
data_2025-04-01-14-32-02.399472_2unck5ncuc,null,NA,audio-button-response,3,9043,0.0-0.0-2.0-1.0,NA,resource/audio/critter_US.mp3,null,NA,NA
data_2025-04-01-14-32-02.399472_2unck5ncuc,null,NA,audio-button-response,4,10296,0.0-0.0-2.0-2.0,NA,resource/audio/critter_TR.mp3,null,NA,NA
data_2025-04-01-14-32-02.399472_2unck5ncuc,null,NA,audio-button-response,5,13631,0.0-0.0-2.0-3.0,NA,resource/audio/critter_NZ.mp3,null,NA,NA
data_2025-04-01-14-32-02.399472_2unck5ncuc,894,NA,audio-button-response,6,14777,0.0-0.0-2.0-4.0,NA,resource/audio/blank.mp3,1,"critter_TR.mp3,critter_NZ.mp3",NA
data_2025-04-01-14-32-02.399472_2unck5ncuc,964.0000000000036,NA,instructions,7,15993,0.0-0.0-2.0-5.0,"[{""page_index"":0,""viewing_time"":964.0000000000036}]",NA,NA,NA,NA
data_2025-04-01-14-32-02.399472_2unck5ncuc,null,NA,audio-button-response,8,18086,0.0-0.0-2.0-6.0,NA,resource/audio/scrapbook_US.mp3,null,NA,NA
data_2025-04-01-14-32-02.399472_2unck5ncuc,null,NA,audio-button-response,9,21051,0.0-0.0-2.0-7.0,NA,resource/audio/scrapbook_NZ.mp3,null,NA,NA
data_2025-04-01-14-32-02.399472_2unck5ncuc,null,NA,audio-button-response,10,22973,0.0-0.0-2.0-8.0,NA,resource/audio/scrapbook_TR.mp3,null,NA,NA
data_2025-04-01-14-32-02.399472_2unck5ncuc,918,NA,audio-button-response,11,24143,0.0-0.0-2.0-9.0,NA,resource/audio/blank.mp3,1,"scrapbook_NZ.mp3,scrapbook_TR.mp3",NA
data_2025-04-01-14-32-02.399472_2unck5ncuc,1181,NA,instructions,12,25575,0.0-0.0-2.0-10.0,"[{""page_index"":0,""viewing_time"":1181}]",NA,NA,NA,NA
data_2025-04-01-14-32-02.399472_2unck5ncuc,null,NA,audio-button-response,13,26922,0.0-0.0-2.0-11.0,NA,resource/audio/zebra_US.mp3,null,NA,NA
data_2025-04-01-14-32-02.399472_2unck5ncuc,null,NA,audio-button-response,14,28240,0.0-0.0-2.0-12.0,NA,resource/audio/zebra_TR.mp3,null,NA,NA
data_2025-04-01-14-32-02.399472_2unck5ncuc,null,NA,audio-button-response,15,31306,0.0-0.0-2.0-13.0,NA,resource/audio/zebra_NZ.mp3,null,NA,NA
data_2025-04-01-14-32-02.399472_2unck5ncuc,1153,NA,audio-button-response,16,32710,0.0-0.0-2.0-14.0,NA,resource/audio/blank.mp3,1,"zebra_TR.mp3,zebra_NZ.mp3",NA
data_2025-04-01-14-32-02.399472_2unck5ncuc,898,NA,instructions,17,33860,0.0-0.0-2.0-15.0,"[{""page_index"":0,""viewing_time"":898}]",NA,NA,NA,NA
data_2025-04-01-14-32-02.399472_2unck5ncuc,null,NA,audio-button-response,18,35340,0.0-0.0-2.0-16.0,NA,resource/audio/telegraph_US.mp3,null,NA,NA
data_2025-04-01-14-32-02.399472_2unck5ncuc,null,NA,audio-button-response,19,37913,0.0-0.0-2.0-17.0,NA,resource/audio/telegraph_TR.mp3,null,NA,NA
data_2025-04-01-14-32-02.399472_2unck5ncuc,null,NA,audio-button-response,20,41162,0.0-0.0-2.0-18.0,NA,resource/audio/telegraph_NZ.mp3,null,NA,NA
data_2025-04-01-14-32-02.399472_2unck5ncuc,1046.0000000000073,NA,audio-button-response,21,42460,0.0-0.0-2.0-19.0,NA,resource/audio/blank.mp3,1,"telegraph_TR.mp3,telegraph_NZ.mp3",NA
data_2025-04-01-14-32-02.399472_2unck5ncuc,1019,NA,instructions,22,43731,0.0-0.0-2.0-20.0,"[{""page_index"":0,""viewing_time"":1019}]",NA,NA,NA,NA
data_2025-04-01-14-32-02.399472_2unck5ncuc,null,NA,audio-button-response,23,44887,0.0-0.0-2.0-21.0,NA,resource/audio/plaster_US.mp3,null,NA,NA
data_2025-04-01-14-32-02.399472_2unck5ncuc,null,NA,audio-button-response,24,46781,0.0-0.0-2.0-22.0,NA,resource/audio/plaster_TR.mp3,null,NA,NA
data_2025-04-01-14-32-02.399472_2unck5ncuc,4409,NA,audio-button-response,25,51547,0.0-0.0-2.0-23.0,NA,resource/audio/plaster_NZ.mp3,0,NA,NA
data_2025-04-01-14-32-02.399472_2unck5ncuc,946,NA,audio-button-response,26,52745,0.0-0.0-2.0-24.0,NA,resource/audio/blank.mp3,0,"plaster_TR.mp3,plaster_NZ.mp3",NA
data_2025-04-01-14-32-02.399472_2unck5ncuc,1130,NA,instructions,27,54126,0.0-0.0-2.0-25.0,"[{""page_index"":0,""viewing_time"":1130}]",NA,NA,NA,NA
data_2025-04-01-14-32-02.399472_2unck5ncuc,null,NA,audio-button-response,28,56602,0.0-0.0-2.0-26.0,NA,resource/audio/aftershave_US.mp3,null,NA,NA
data_2025-04-01-14-32-02.399472_2unck5ncuc,null,NA,audio-button-response,29,58643,0.0-0.0-2.0-27.0,NA,resource/audio/aftershave_TR.mp3,null,NA,NA
data_2025-04-01-14-32-02.399472_2unck5ncuc,null,NA,audio-button-response,30,62255,0.0-0.0-2.0-28.0,NA,resource/audio/aftershave_NZ.mp3,null,NA,NA
data_2025-04-01-14-32-02.399472_2unck5ncuc,755,NA,audio-button-response,31,63261,0.0-0.0-2.0-29.0,NA,resource/audio/blank.mp3,0,"aftershave_TR.mp3,aftershave_NZ.mp3",NA
data_2025-04-01-14-32-02.399472_2unck5ncuc,1154,NA,instructions,32,64667,0.0-0.0-2.0-30.0,"[{""page_index"":0,""viewing_time"":1154}]",NA,NA,NA,NA
data_2025-04-01-14-32-02.399472_2unck5ncuc,null,NA,audio-button-response,33,66111,0.0-0.0-2.0-31.0,NA,resource/audio/flower_US.mp3,null,NA,NA
data_2025-04-01-14-32-02.399472_2unck5ncuc,null,NA,audio-button-response,34,69488,0.0-0.0-2.0-32.0,NA,resource/audio/flower_NZ.mp3,null,NA,NA
data_2025-04-01-14-32-02.399472_2unck5ncuc,null,NA,audio-button-response,35,71744,0.0-0.0-2.0-33.0,NA,resource/audio/flower_TR.mp3,null,NA,NA
data_2025-04-01-14-32-02.399472_2unck5ncuc,929,NA,audio-button-response,36,72927,0.0-0.0-2.0-34.0,NA,resource/audio/blank.mp3,0,"flower_NZ.mp3,flower_TR.mp3",NA
data_2025-04-01-14-32-02.399472_2unck5ncuc,1119.9999999999854,NA,instructions,37,74297,0.0-0.0-2.0-35.0,"[{""page_index"":0,""viewing_time"":1119}]",NA,NA,NA,NA
data_2025-04-01-14-32-02.399472_2unck5ncuc,null,NA,audio-button-response,38,76151,0.0-0.0-2.0-36.0,NA,resource/audio/email_US.mp3,null,NA,NA
data_2025-04-01-14-32-02.399472_2unck5ncuc,null,NA,audio-button-response,39,78435,0.0-0.0-2.0-37.0,NA,resource/audio/email_TR.mp3,null,NA,NA
data_2025-04-01-14-32-02.399472_2unck5ncuc,null,NA,audio-button-response,40,81765,0.0-0.0-2.0-38.0,NA,resource/audio/email_NZ.mp3,null,NA,NA
data_2025-04-01-14-32-02.399472_2unck5ncuc,693,NA,audio-button-response,41,82710,0.0-0.0-2.0-39.0,NA,resource/audio/blank.mp3,0,"email_TR.mp3,email_NZ.mp3",NA
data_2025-04-01-14-32-02.399472_2unck5ncuc,1066,NA,instructions,42,84026,0.0-0.0-2.0-40.0,"[{""page_index"":0,""viewing_time"":1066}]",NA,NA,NA,NA
data_2025-04-01-14-32-02.399472_2unck5ncuc,null,NA,audio-button-response,43,85634,0.0-0.0-2.0-41.0,NA,resource/audio/butterfly_US.mp3,null,NA,NA
data_2025-04-01-14-32-02.399472_2unck5ncuc,null,NA,audio-button-response,44,88725,0.0-0.0-2.0-42.0,NA,resource/audio/butterfly_NZ.mp3,null,NA,NA
data_2025-04-01-14-32-02.399472_2unck5ncuc,null,NA,audio-button-response,45,90597,0.0-0.0-2.0-43.0,NA,resource/audio/butterfly_TR.mp3,null,NA,NA
data_2025-04-01-14-32-02.399472_2unck5ncuc,1028,NA,audio-button-response,46,91877,0.0-0.0-2.0-44.0,NA,resource/audio/blank.mp3,1,"butterfly_NZ.mp3,butterfly_TR.mp3",NA
data_2025-04-01-14-32-02.399472_2unck5ncuc,924,NA,instructions,47,93052,0.0-0.0-2.0-45.0,"[{""page_index"":0,""viewing_time"":924}]",NA,NA,NA,NA
data_2025-04-01-14-32-02.399472_2unck5ncuc,null,NA,audio-button-response,48,94663,0.0-0.0-2.0-46.0,NA,resource/audio/catfish_US.mp3,null,NA,NA
data_2025-04-01-14-32-02.399472_2unck5ncuc,null,NA,audio-button-response,49,97808,0.0-0.0-2.0-47.0,NA,resource/audio/catfish_NZ.mp3,null,NA,NA
data_2025-04-01-14-32-02.399472_2unck5ncuc,null,NA,audio-button-response,50,99274,0.0-0.0-2.0-48.0,NA,resource/audio/catfish_TR.mp3,null,NA,NA
data_2025-04-01-14-32-02.399472_2unck5ncuc,783,NA,audio-button-response,51,100310,0.0-0.0-2.0-49.0,NA,resource/audio/blank.mp3,1,"catfish_NZ.mp3,catfish_TR.mp3",NA
data_2025-04-01-14-32-02.399472_2unck5ncuc,830.9999999999854,NA,instructions,52,101393,0.0-0.0-2.0-50.0,"[{""page_index"":0,""viewing_time"":830.9999999999854}]",NA,NA,NA,NA
data_2025-04-01-14-32-02.399472_2unck5ncuc,null,NA,audio-button-response,53,103534,0.0-0.0-2.0-51.0,NA,resource/audio/elephant_US.mp3,null,NA,NA
data_2025-04-01-14-32-02.399472_2unck5ncuc,null,NA,audio-button-response,54,106579,0.0-0.0-2.0-52.0,NA,resource/audio/elephant_NZ.mp3,null,NA,NA
data_2025-04-01-14-32-02.399472_2unck5ncuc,null,NA,audio-button-response,55,108837,0.0-0.0-2.0-53.0,NA,resource/audio/elephant_TR.mp3,null,NA,NA
data_2025-04-01-14-32-02.399472_2unck5ncuc,738.9999999999854,NA,audio-button-response,56,109829,0.0-0.0-2.0-54.0,NA,resource/audio/blank.mp3,0,"elephant_NZ.mp3,elephant_TR.mp3",NA
data_2025-04-01-14-32-02.399472_2unck5ncuc,1131,NA,instructions,57,111210,0.0-0.0-2.0-55.0,"[{""page_index"":0,""viewing_time"":1131}]",NA,NA,NA,NA
data_2025-04-01-14-32-02.399472_2unck5ncuc,null,NA,audio-button-response,58,112624,0.0-0.0-2.0-56.0,NA,resource/audio/dolphin_US.mp3,null,NA,NA
data_2025-04-01-14-32-02.399472_2unck5ncuc,null,NA,audio-button-response,59,116341,0.0-0.0-2.0-57.0,NA,resource/audio/dolphin_NZ.mp3,null,NA,NA
data_2025-04-01-14-32-02.399472_2unck5ncuc,null,NA,audio-button-response,60,117657,0.0-0.0-2.0-58.0,NA,resource/audio/dolphin_TR.mp3,null,NA,NA
data_2025-04-01-14-32-02.399472_2unck5ncuc,786,NA,audio-button-response,61,118695,0.0-0.0-2.0-59.0,NA,resource/audio/blank.mp3,1,"dolphin_NZ.mp3,dolphin_TR.mp3",NA
data_2025-04-01-14-32-02.399472_2unck5ncuc,1080,NA,instructions,62,120027,0.0-0.0-2.0-60.0,"[{""page_index"":0,""viewing_time"":1080}]",NA,NA,NA,NA
data_2025-04-01-14-32-02.399472_2unck5ncuc,null,NA,audio-button-response,63,121422,0.0-0.0-2.0-61.0,NA,resource/audio/fiance_US.mp3,null,NA,NA
data_2025-04-01-14-32-02.399472_2unck5ncuc,null,NA,audio-button-response,64,122840,0.0-0.0-2.0-62.0,NA,resource/audio/fiance_TR.mp3,null,NA,NA
data_2025-04-01-14-32-02.399472_2unck5ncuc,null,NA,audio-button-response,65,126976,0.0-0.0-2.0-63.0,NA,resource/audio/fiance_NZ.mp3,null,NA,NA
data_2025-04-01-14-32-02.399472_2unck5ncuc,1370,NA,audio-button-response,66,128598,0.0-0.0-2.0-64.0,NA,resource/audio/blank.mp3,0,"fiance_TR.mp3,fiance_NZ.mp3",NA
data_2025-04-01-14-32-02.399472_2unck5ncuc,829,NA,instructions,67,129677,0.0-0.0-2.0-65.0,"[{""page_index"":0,""viewing_time"":829}]",NA,NA,NA,NA
data_2025-04-01-14-32-02.399472_2unck5ncuc,null,NA,audio-button-response,68,132177,0.0-0.0-2.0-66.0,NA,resource/audio/basket_US.mp3,null,NA,NA
data_2025-04-01-14-32-02.399472_2unck5ncuc,null,NA,audio-button-response,69,135483,0.0-0.0-2.0-67.0,NA,resource/audio/basket_NZ.mp3,null,NA,NA
data_2025-04-01-14-32-02.399472_2unck5ncuc,null,NA,audio-button-response,70,138024,0.0-0.0-2.0-68.0,NA,resource/audio/basket_TR.mp3,null,NA,NA
data_2025-04-01-14-32-02.399472_2unck5ncuc,934,NA,audio-button-response,71,139210,0.0-0.0-2.0-69.0,NA,resource/audio/blank.mp3,0,"basket_NZ.mp3,basket_TR.mp3",NA
data_2025-04-01-14-32-02.399472_2unck5ncuc,1486,NA,instructions,72,140948,0.0-0.0-2.0-70.0,"[{""page_index"":0,""viewing_time"":1485}]",NA,NA,NA,NA
data_2025-04-01-14-32-02.399472_2unck5ncuc,null,NA,audio-button-response,73,143424,0.0-0.0-2.0-71.0,NA,resource/audio/fragrance_US.mp3,null,NA,NA
data_2025-04-01-14-32-02.399472_2unck5ncuc,null,NA,audio-button-response,74,147090,0.0-0.0-2.0-72.0,NA,resource/audio/fragrance_NZ.mp3,null,NA,NA
data_2025-04-01-14-32-02.399472_2unck5ncuc,null,NA,audio-button-response,75,149517,0.0-0.0-2.0-73.0,NA,resource/audio/fragrance_TR.mp3,null,NA,NA
data_2025-04-01-14-32-02.399472_2unck5ncuc,807.9999999999709,NA,audio-button-response,76,150577,0.0-0.0-2.0-74.0,NA,resource/audio/blank.mp3,0,"fragrance_NZ.mp3,fragrance_TR.mp3",NA
data_2025-04-01-14-32-02.399472_2unck5ncuc,1017,NA,instructions,77,151845,0.0-0.0-2.0-75.0,"[{""page_index"":0,""viewing_time"":1017}]",NA,NA,NA,NA
data_2025-04-01-14-32-02.399472_2unck5ncuc,null,NA,audio-button-response,78,153383,0.0-0.0-2.0-76.0,NA,resource/audio/scorpion_US.mp3,null,NA,NA
data_2025-04-01-14-32-02.399472_2unck5ncuc,null,NA,audio-button-response,79,154849,0.0-0.0-2.0-77.0,NA,resource/audio/scorpion_TR.mp3,null,NA,NA
data_2025-04-01-14-32-02.399472_2unck5ncuc,null,NA,audio-button-response,80,157938,0.0-0.0-2.0-78.0,NA,resource/audio/scorpion_NZ.mp3,null,NA,NA
data_2025-04-01-14-32-02.399472_2unck5ncuc,853.0000000000291,NA,audio-button-response,81,159044,0.0-0.0-2.0-79.0,NA,resource/audio/blank.mp3,0,"scorpion_TR.mp3,scorpion_NZ.mp3",NA
data_2025-04-01-14-32-02.399472_2unck5ncuc,850.0000000000291,NA,instructions,82,160144,0.0-0.0-2.0-80.0,"[{""page_index"":0,""viewing_time"":850.0000000000291}]",NA,NA,NA,NA
data_2025-04-01-14-32-02.399472_2unck5ncuc,null,NA,audio-button-response,83,162787,0.0-0.0-2.0-81.0,NA,resource/audio/kitten_US.mp3,null,NA,NA
data_2025-04-01-14-32-02.399472_2unck5ncuc,null,NA,audio-button-response,84,165021,0.0-0.0-2.0-82.0,NA,resource/audio/kitten_TR.mp3,null,NA,NA
data_2025-04-01-14-32-02.399472_2unck5ncuc,null,NA,audio-button-response,85,168320,0.0-0.0-2.0-83.0,NA,resource/audio/kitten_NZ.mp3,null,NA,NA
data_2025-04-01-14-32-02.399472_2unck5ncuc,788,NA,audio-button-response,86,169361,0.0-0.0-2.0-84.0,NA,resource/audio/blank.mp3,0,"kitten_TR.mp3,kitten_NZ.mp3",NA
data_2025-04-01-14-32-02.399472_2unck5ncuc,1650,NA,instructions,87,171261,0.0-0.0-2.0-85.0,"[{""page_index"":0,""viewing_time"":1650}]",NA,NA,NA,NA
data_2025-04-01-14-32-02.399472_2unck5ncuc,null,NA,audio-button-response,88,172702,0.0-0.0-2.0-86.0,NA,resource/audio/hamster_US.mp3,null,NA,NA
data_2025-04-01-14-32-02.399472_2unck5ncuc,null,NA,audio-button-response,89,173925,0.0-0.0-2.0-87.0,NA,resource/audio/hamster_TR.mp3,null,NA,NA
data_2025-04-01-14-32-02.399472_2unck5ncuc,null,NA,audio-button-response,90,178064,0.0-0.0-2.0-88.0,NA,resource/audio/hamster_NZ.mp3,null,NA,NA
data_2025-04-01-14-32-02.399472_2unck5ncuc,729,NA,audio-button-response,91,179046,0.0-0.0-2.0-89.0,NA,resource/audio/blank.mp3,0,"hamster_TR.mp3,hamster_NZ.mp3",NA
data_2025-04-01-14-32-02.399472_2unck5ncuc,1030,NA,instructions,92,180327,0.0-0.0-2.0-90.0,"[{""page_index"":0,""viewing_time"":1030}]",NA,NA,NA,NA
data_2025-04-01-14-32-02.399472_2unck5ncuc,null,NA,audio-button-response,93,182365,0.0-0.0-2.0-91.0,NA,resource/audio/freezer_US.mp3,null,NA,NA
data_2025-04-01-14-32-02.399472_2unck5ncuc,null,NA,audio-button-response,94,184387,0.0-0.0-2.0-92.0,NA,resource/audio/freezer_TR.mp3,null,NA,NA
data_2025-04-01-14-32-02.399472_2unck5ncuc,null,NA,audio-button-response,95,189410,0.0-0.0-2.0-93.0,NA,resource/audio/freezer_NZ.mp3,null,NA,NA
data_2025-04-01-14-32-02.399472_2unck5ncuc,747.9999999999709,NA,audio-button-response,96,190411,0.0-0.0-2.0-94.0,NA,resource/audio/blank.mp3,0,"freezer_TR.mp3,freezer_NZ.mp3",NA
data_2025-04-01-14-32-02.399472_2unck5ncuc,921,NA,instructions,97,191583,0.0-0.0-2.0-95.0,"[{""page_index"":0,""viewing_time"":921}]",NA,NA,NA,NA
data_2025-04-01-14-32-02.399472_2unck5ncuc,null,NA,audio-button-response,98,192950,0.0-0.0-2.0-96.0,NA,resource/audio/corral_US.mp3,null,NA,NA
data_2025-04-01-14-32-02.399472_2unck5ncuc,null,NA,audio-button-response,99,196019,0.0-0.0-2.0-97.0,NA,resource/audio/corral_NZ.mp3,null,NA,NA
data_2025-04-01-14-32-02.399472_2unck5ncuc,null,NA,audio-button-response,100,197150,0.0-0.0-2.0-98.0,NA,resource/audio/corral_TR.mp3,null,NA,NA
data_2025-04-01-14-32-02.399472_2unck5ncuc,1262,NA,audio-button-response,101,198662,0.0-0.0-2.0-99.0,NA,resource/audio/blank.mp3,0,"corral_NZ.mp3,corral_TR.mp3",NA
data_2025-04-01-14-32-02.399472_2unck5ncuc,947,NA,instructions,102,199861,0.0-0.0-2.0-100.0,"[{""page_index"":0,""viewing_time"":947}]",NA,NA,NA,NA
data_2025-04-01-14-32-02.399472_2unck5ncuc,null,NA,audio-button-response,103,201880,0.0-0.0-2.0-101.0,NA,resource/audio/garage_US.mp3,null,NA,NA
data_2025-04-01-14-32-02.399472_2unck5ncuc,null,NA,audio-button-response,104,205601,0.0-0.0-2.0-102.0,NA,resource/audio/garage_NZ.mp3,null,NA,NA
data_2025-04-01-14-32-02.399472_2unck5ncuc,null,NA,audio-button-response,105,207858,0.0-0.0-2.0-103.0,NA,resource/audio/garage_TR.mp3,null,NA,NA
data_2025-04-01-14-32-02.399472_2unck5ncuc,720,NA,audio-button-response,106,208831,0.0-0.0-2.0-104.0,NA,resource/audio/blank.mp3,0,"garage_NZ.mp3,garage_TR.mp3",NA
data_2025-04-01-14-32-02.399472_2unck5ncuc,878.0000000000291,NA,instructions,107,209961,0.0-0.0-2.0-105.0,"[{""page_index"":0,""viewing_time"":878.0000000000291}]",NA,NA,NA,NA
data_2025-04-01-14-32-02.399472_2unck5ncuc,null,NA,audio-button-response,108,211904,0.0-0.0-2.0-106.0,NA,resource/audio/syringe_US.mp3,null,NA,NA
data_2025-04-01-14-32-02.399472_2unck5ncuc,null,NA,audio-button-response,109,214208,0.0-0.0-2.0-107.0,NA,resource/audio/syringe_TR.mp3,null,NA,NA
data_2025-04-01-14-32-02.399472_2unck5ncuc,null,NA,audio-button-response,110,217903,0.0-0.0-2.0-108.0,NA,resource/audio/syringe_NZ.mp3,null,NA,NA
data_2025-04-01-14-32-02.399472_2unck5ncuc,722,NA,audio-button-response,111,218878,0.0-0.0-2.0-109.0,NA,resource/audio/blank.mp3,1,"syringe_TR.mp3,syringe_NZ.mp3",NA
data_2025-04-01-14-32-02.399472_2unck5ncuc,984,NA,instructions,112,220113,0.0-0.0-2.0-110.0,"[{""page_index"":0,""viewing_time"":984}]",NA,NA,NA,NA
data_2025-04-01-14-32-02.399472_2unck5ncuc,null,NA,audio-button-response,113,221410,0.0-0.0-2.0-111.0,NA,resource/audio/giraffe_US.mp3,null,NA,NA
data_2025-04-01-14-32-02.399472_2unck5ncuc,null,NA,audio-button-response,114,224632,0.0-0.0-2.0-112.0,NA,resource/audio/giraffe_NZ.mp3,null,NA,NA
data_2025-04-01-14-32-02.399472_2unck5ncuc,null,NA,audio-button-response,115,225928,0.0-0.0-2.0-113.0,NA,resource/audio/giraffe_TR.mp3,null,NA,NA
data_2025-04-01-14-32-02.399472_2unck5ncuc,1048.999999999971,NA,audio-button-response,116,227230,0.0-0.0-2.0-114.0,NA,resource/audio/blank.mp3,0,"giraffe_NZ.mp3,giraffe_TR.mp3",NA
data_2025-04-01-14-32-02.399472_2unck5ncuc,882,NA,instructions,117,228364,0.0-0.0-2.0-115.0,"[{""page_index"":0,""viewing_time"":882}]",NA,NA,NA,NA
data_2025-04-01-14-32-02.399472_2unck5ncuc,null,NA,audio-button-response,118,229923,0.0-0.0-2.0-116.0,NA,resource/audio/kangaroo_US.mp3,null,NA,NA
data_2025-04-01-14-32-02.399472_2unck5ncuc,null,NA,audio-button-response,119,231219,0.0-0.0-2.0-117.0,NA,resource/audio/kangaroo_TR.mp3,null,NA,NA
data_2025-04-01-14-32-02.399472_2unck5ncuc,null,NA,audio-button-response,120,234624,0.0-0.0-2.0-118.0,NA,resource/audio/kangaroo_NZ.mp3,null,NA,NA
data_2025-04-01-14-32-02.399472_2unck5ncuc,702,NA,audio-button-response,121,235578,0.0-0.0-2.0-119.0,NA,resource/audio/blank.mp3,1,"kangaroo_TR.mp3,kangaroo_NZ.mp3",NA
data_2025-04-01-14-32-02.399472_2unck5ncuc,881,NA,instructions,122,236711,0.0-0.0-2.0-120.0,"[{""page_index"":0,""viewing_time"":881}]",NA,NA,NA,NA
data_2025-04-01-14-32-02.399472_2unck5ncuc,null,NA,audio-button-response,123,238321,0.0-0.0-2.0-121.0,NA,resource/audio/snake_US.mp3,null,NA,NA
data_2025-04-01-14-32-02.399472_2unck5ncuc,null,NA,audio-button-response,124,239518,0.0-0.0-2.0-122.0,NA,resource/audio/snake_TR.mp3,null,NA,NA
data_2025-04-01-14-32-02.399472_2unck5ncuc,2107.999999999971,NA,audio-button-response,125,243083,0.0-0.0-2.0-123.0,NA,resource/audio/snake_NZ.mp3,0,NA,NA
data_2025-04-01-14-32-02.399472_2unck5ncuc,858.9999999999709,NA,audio-button-response,126,244194,0.0-0.0-2.0-124.0,NA,resource/audio/blank.mp3,1,"snake_TR.mp3,snake_NZ.mp3",NA
data_2025-04-01-14-32-02.399472_2unck5ncuc,1183,NA,instructions,127,245628,0.0-0.0-2.0-125.0,"[{""page_index"":0,""viewing_time"":1183}]",NA,NA,NA,NA
data_2025-04-01-14-32-02.399472_2unck5ncuc,null,NA,audio-button-response,128,248010,0.0-0.0-2.0-126.0,NA,resource/audio/podium_US.mp3,null,NA,NA
data_2025-04-01-14-32-02.399472_2unck5ncuc,null,NA,audio-button-response,129,250257,0.0-0.0-2.0-127.0,NA,resource/audio/podium_TR.mp3,null,NA,NA
data_2025-04-01-14-32-02.399472_2unck5ncuc,null,NA,audio-button-response,130,252720,0.0-0.0-2.0-128.0,NA,resource/audio/podium_NZ.mp3,null,NA,NA
data_2025-04-01-14-32-02.399472_2unck5ncuc,1507,NA,audio-button-response,131,254481,0.0-0.0-2.0-129.0,NA,resource/audio/blank.mp3,0,"podium_TR.mp3,podium_NZ.mp3",NA
data_2025-04-01-14-32-02.399472_2unck5ncuc,928.9999999999709,NA,instructions,132,255661,0.0-0.0-2.0-130.0,"[{""page_index"":0,""viewing_time"":928.9999999999709}]",NA,NA,NA,NA
data_2025-04-01-14-32-02.399472_2unck5ncuc,null,NA,audio-button-response,133,258279,0.0-0.0-2.0-131.0,NA,resource/audio/tiger_US.mp3,null,NA,NA
data_2025-04-01-14-32-02.399472_2unck5ncuc,null,NA,audio-button-response,134,260514,0.0-0.0-2.0-132.0,NA,resource/audio/tiger_TR.mp3,null,NA,NA
data_2025-04-01-14-32-02.399472_2unck5ncuc,null,NA,audio-button-response,135,263611,0.0-0.0-2.0-133.0,NA,resource/audio/tiger_NZ.mp3,null,NA,NA
data_2025-04-01-14-32-02.399472_2unck5ncuc,799,NA,audio-button-response,136,264662,0.0-0.0-2.0-134.0,NA,resource/audio/blank.mp3,0,"tiger_TR.mp3,tiger_NZ.mp3",NA
data_2025-04-01-14-32-02.399472_2unck5ncuc,749,NA,instructions,137,265661,0.0-0.0-2.0-135.0,"[{""page_index"":0,""viewing_time"":749}]",NA,NA,NA,NA
data_2025-04-01-14-32-02.399472_2unck5ncuc,null,NA,audio-button-response,138,266817,0.0-0.0-2.0-136.0,NA,resource/audio/cricket_US.mp3,null,NA,NA
data_2025-04-01-14-32-02.399472_2unck5ncuc,null,NA,audio-button-response,139,269960,0.0-0.0-2.0-137.0,NA,resource/audio/cricket_NZ.mp3,null,NA,NA
data_2025-04-01-14-32-02.399472_2unck5ncuc,null,NA,audio-button-response,140,271118,0.0-0.0-2.0-138.0,NA,resource/audio/cricket_TR.mp3,null,NA,NA
data_2025-04-01-14-32-02.399472_2unck5ncuc,825,NA,audio-button-response,141,272195,0.0-0.0-2.0-139.0,NA,resource/audio/blank.mp3,0,"cricket_NZ.mp3,cricket_TR.mp3",NA
data_2025-04-01-14-32-02.399472_2unck5ncuc,823.9999999999418,NA,instructions,142,273270,0.0-0.0-2.0-140.0,"[{""page_index"":0,""viewing_time"":823.9999999999418}]",NA,NA,NA,NA
data_2025-04-01-14-32-02.399472_2unck5ncuc,null,NA,audio-button-response,143,275048,0.0-0.0-2.0-141.0,NA,resource/audio/fiber_US.mp3,null,NA,NA
data_2025-04-01-14-32-02.399472_2unck5ncuc,null,NA,audio-button-response,144,277905,0.0-0.0-2.0-142.0,NA,resource/audio/fiber_NZ.mp3,null,NA,NA
data_2025-04-01-14-32-02.399472_2unck5ncuc,null,NA,audio-button-response,145,279996,0.0-0.0-2.0-143.0,NA,resource/audio/fiber_TR.mp3,null,NA,NA
data_2025-04-01-14-32-02.399472_2unck5ncuc,817,NA,audio-button-response,146,281065,0.0-0.0-2.0-144.0,NA,resource/audio/blank.mp3,1,"fiber_NZ.mp3,fiber_TR.mp3",NA
data_2025-04-01-14-32-02.399472_2unck5ncuc,865,NA,instructions,147,282181,0.0-0.0-2.0-145.0,"[{""page_index"":0,""viewing_time"":865}]",NA,NA,NA,NA
data_2025-04-01-14-32-02.399472_2unck5ncuc,null,NA,audio-button-response,148,283568,0.0-0.0-2.0-146.0,NA,resource/audio/rattlesnake_US.mp3,null,NA,NA
data_2025-04-01-14-32-02.399472_2unck5ncuc,null,NA,audio-button-response,149,284870,0.0-0.0-2.0-147.0,NA,resource/audio/rattlesnake_TR.mp3,null,NA,NA
data_2025-04-01-14-32-02.399472_2unck5ncuc,null,NA,audio-button-response,150,288350,0.0-0.0-2.0-148.0,NA,resource/audio/rattlesnake_NZ.mp3,null,NA,NA
data_2025-04-01-14-32-02.399472_2unck5ncuc,778,NA,audio-button-response,151,289380,0.0-0.0-2.0-149.0,NA,resource/audio/blank.mp3,1,"rattlesnake_TR.mp3,rattlesnake_NZ.mp3",NA
data_2025-04-01-14-32-02.399472_2unck5ncuc,2479,NA,html-keyboard-response,152,292114,0.0-0.0-3.0,NA,Thank you for your participation! To receive full credit you will be redirected to complete a brief demographic questionnaire. https://utexas.qualtrics.com/jfe/form/SV_es5YLeHNdLkWZ4W,NA,NA,32
